"run_id","condition","rt","url","trial_type","trial_index","time_elapsed","internal_node_id","subject","age","gender","gender_rt","attention_check","attention_check_rt","scenario","test_condition","InJu1","InJu1_rt","InJu1_trial1","InJu1_trial2","InJu1_trial3","conf1","ca1","sw1","rsn1","ca2","sw2","rsn2","ca3","sw3","rsn3","CS","CS_rt","CS_trial1","CS_trial2","CS_trial3","InJu2","InJu2_rt","InJu2_trial1","InJu2_trial2","InJu2_trial3","conf2","responses","stimulus","button_pressed","key_press","response","recorded_at","ip","user_agent","device","browser","browser_version","platform","platform_version","source_code_version","cog_practice","cog_practice1","cog_practice2","cog_practice3","cog_load_response8","cog_load_response0","reason","cog_load_response5","gender_other"
10,"control","5616","information_sheet.html","external-html",0,6058,"0.0-0.0","vt9gewf7j1ynym8",37,4,3077,8,2675,"Incest","control",2,3972,"1","null","null",6,0,0,1,0,1,0,0,0,0,0,1772,"1","null","null",2,2945,"1","null","null",5,"""","""","""","""","""",2021-11-01 21:05:41,"109.77.110.5","Mozilla/5.0 (X11; Ubuntu; Linux x86_64; rv:93.0) Gecko/20100101 Firefox/93.0",NA,"Firefox",93,"Ubuntu",NA,"3a61329f9539c1793efb98a4faa2e6fe",NA,NA,NA,NA,NA,NA,NA,NA,NA
10,"control","5253","consent_form.html","external-html",1,11603,"0.0-1.0","vt9gewf7j1ynym8",37,4,3077,8,2675,"Incest","control",2,3972,"1","null","null",6,0,0,1,0,1,0,0,0,0,0,1772,"1","null","null",2,2945,"1","null","null",5,"""","""","""","""","""",2021-11-01 21:05:41,"109.77.110.5","Mozilla/5.0 (X11; Ubuntu; Linux x86_64; rv:93.0) Gecko/20100101 Firefox/93.0",NA,"Firefox",93,"Ubuntu",NA,"3a61329f9539c1793efb98a4faa2e6fe",NA,NA,NA,NA,NA,NA,NA,NA,NA
10,"control","10195","""","survey-text",2,21810,"0.0-2.0-0.0","vt9gewf7j1ynym8",37,4,3077,8,2675,"Incest","control",2,3972,"1","null","null",6,0,0,1,0,1,0,0,0,0,0,1772,"1","null","null",2,2945,"1","null","null",5,"{""age_q"":""37""}","""","""","""","""",2021-11-01 21:05:41,"109.77.110.5","Mozilla/5.0 (X11; Ubuntu; Linux x86_64; rv:93.0) Gecko/20100101 Firefox/93.0",NA,"Firefox",93,"Ubuntu",NA,"3a61329f9539c1793efb98a4faa2e6fe",NA,NA,NA,NA,NA,NA,NA,NA,NA
10,"control","3077","""","html-button-response",3,24905,"0.0-2.0-1.0-0.0","vt9gewf7j1ynym8",37,4,3077,8,2675,"Incest","control",2,3972,"1","null","null",6,0,0,1,0,1,0,0,0,0,0,1772,"1","null","null",2,2945,"1","null","null",5,"""","<p>Please select your gender:</p>","4","""","""",2021-11-01 21:05:41,"109.77.110.5","Mozilla/5.0 (X11; Ubuntu; Linux x86_64; rv:93.0) Gecko/20100101 Firefox/93.0",NA,"Firefox",93,"Ubuntu",NA,"3a61329f9539c1793efb98a4faa2e6fe",NA,NA,NA,NA,NA,NA,NA,NA,NA
10,"control","null","""","html-keyboard-response",4,25409,"0.0-3.0-0.0","vt9gewf7j1ynym8",37,4,3077,8,2675,"Incest","control",2,3972,"1","null","null",6,0,0,1,0,1,0,0,0,0,0,1772,"1","null","null",2,2945,"1","null","null",5,"""","""","""","null","""",2021-11-01 21:05:41,"109.77.110.5","Mozilla/5.0 (X11; Ubuntu; Linux x86_64; rv:93.0) Gecko/20100101 Firefox/93.0",NA,"Firefox",93,"Ubuntu",NA,"3a61329f9539c1793efb98a4faa2e6fe",NA,NA,NA,NA,NA,NA,NA,NA,NA
10,"control","2675","""","html-button-response",5,28088,"0.0-3.0-1.0","vt9gewf7j1ynym8",37,4,3077,8,2675,"Incest","control",2,3972,"1","null","null",6,0,0,1,0,1,0,0,0,0,0,1772,"1","null","null",2,2945,"1","null","null",5,"""","<img src=""img/attention1.png""><br><p>Please select a word that describes how you are currently feeling:","8","""","""",2021-11-01 21:05:41,"109.77.110.5","Mozilla/5.0 (X11; Ubuntu; Linux x86_64; rv:93.0) Gecko/20100101 Firefox/93.0",NA,"Firefox",93,"Ubuntu",NA,"3a61329f9539c1793efb98a4faa2e6fe",NA,NA,NA,NA,NA,NA,NA,NA,NA
10,"control","null","""","html-keyboard-response",6,28596,"0.0-3.0-2.0","vt9gewf7j1ynym8",37,4,3077,8,2675,"Incest","control",2,3972,"1","null","null",6,0,0,1,0,1,0,0,0,0,0,1772,"1","null","null",2,2945,"1","null","null",5,"""","""","""","null","""",2021-11-01 21:05:41,"109.77.110.5","Mozilla/5.0 (X11; Ubuntu; Linux x86_64; rv:93.0) Gecko/20100101 Firefox/93.0",NA,"Firefox",93,"Ubuntu",NA,"3a61329f9539c1793efb98a4faa2e6fe",NA,NA,NA,NA,NA,NA,NA,NA,NA
10,"control","7145","""","html-button-response",7,35745,"0.0-3.0-3.0-0.0","vt9gewf7j1ynym8",37,4,3077,8,2675,"Incest","control",2,3972,"1","null","null",6,0,0,1,0,1,0,0,0,0,0,1772,"1","null","null",2,2945,"1","null","null",5,"""","<p>You will shortly be presented with a scenario. Following this you will be asked a series of questions</p><p>","0","""","""",2021-11-01 21:05:41,"109.77.110.5","Mozilla/5.0 (X11; Ubuntu; Linux x86_64; rv:93.0) Gecko/20100101 Firefox/93.0",NA,"Firefox",93,"Ubuntu",NA,"3a61329f9539c1793efb98a4faa2e6fe",NA,NA,NA,NA,NA,NA,NA,NA,NA
10,"control","1915","""","html-button-response",8,37666,"0.0-3.0-3.0-1.0","vt9gewf7j1ynym8",37,4,3077,8,2675,"Incest","control",2,3972,"1","null","null",6,0,0,1,0,1,0,0,0,0,0,1772,"1","null","null",2,2945,"1","null","null",5,"""","<p style=""max-width: 800px; text-align: left; font-size: 18px"">Julie and Mark, who are brother and sister are travelling together in France. They are both on summer vacation from college. One night they are staying alone in a cabin near the beach. They decide that it would be interesting and fun if they tried making love. At very least it would be a new experience for each of them. Julie was already taking birth control pills, but Mark uses a condom too, just to be safe. They both enjoy it, but they decide not to do it again. They keep that night as a special secret between them, which makes them feel even closer to each other.</p>","0","""","""",2021-11-01 21:05:41,"109.77.110.5","Mozilla/5.0 (X11; Ubuntu; Linux x86_64; rv:93.0) Gecko/20100101 Firefox/93.0",NA,"Firefox",93,"Ubuntu",NA,"3a61329f9539c1793efb98a4faa2e6fe",NA,NA,NA,NA,NA,NA,NA,NA,NA
10,"control","3972","""","html-slider-response",9,41652,"0.0-3.0-3.0-2.0","vt9gewf7j1ynym8",37,4,3077,8,2675,"Incest","control",2,3972,"1","null","null",6,0,0,1,0,1,0,0,0,0,0,1772,"1","null","null",2,2945,"1","null","null",5,"""","<p>How would you rate the behaviour of Julie and Mark?</p><p>(1 = Morally Wrong; and 7 = Morally Right)</p>","""","""","2",2021-11-01 21:05:41,"109.77.110.5","Mozilla/5.0 (X11; Ubuntu; Linux x86_64; rv:93.0) Gecko/20100101 Firefox/93.0",NA,"Firefox",93,"Ubuntu",NA,"3a61329f9539c1793efb98a4faa2e6fe",NA,NA,NA,NA,NA,NA,NA,NA,NA
10,"control","5878","""","html-slider-response",10,47544,"0.0-3.0-3.0-3.0","vt9gewf7j1ynym8",37,4,3077,8,2675,"Incest","control",2,3972,"1","null","null",6,0,0,1,0,1,0,0,0,0,0,1772,"1","null","null",2,2945,"1","null","null",5,"""","<p>How confident are you about your judgement?</p><p>(1 = Not at all Confident; 7 = Extremely Confident)</p>","""","""","6",2021-11-01 21:05:41,"109.77.110.5","Mozilla/5.0 (X11; Ubuntu; Linux x86_64; rv:93.0) Gecko/20100101 Firefox/93.0",NA,"Firefox",93,"Ubuntu",NA,"3a61329f9539c1793efb98a4faa2e6fe",NA,NA,NA,NA,NA,NA,NA,NA,NA
10,"control","3482","""","html-button-response",11,51030,"0.0-3.0-3.0-4.0-0.0","vt9gewf7j1ynym8",37,4,3077,8,2675,"Incest","control",2,3972,"1","null","null",6,0,0,1,0,1,0,0,0,0,0,1772,"1","null","null",2,2945,"1","null","null",5,"""","<p>Do you agree that any concerns regarding reproductive complications are eased by their using of two forms of contraception?</p>","0","""","""",2021-11-01 21:05:41,"109.77.110.5","Mozilla/5.0 (X11; Ubuntu; Linux x86_64; rv:93.0) Gecko/20100101 Firefox/93.0",NA,"Firefox",93,"Ubuntu",NA,"3a61329f9539c1793efb98a4faa2e6fe",NA,NA,NA,NA,NA,NA,NA,NA,NA
10,"control","738","""","html-button-response",12,51776,"0.0-3.0-3.0-4.0-1.0","vt9gewf7j1ynym8",37,4,3077,8,2675,"Incest","control",2,3972,"1","null","null",6,0,0,1,0,1,0,0,0,0,0,1772,"1","null","null",2,2945,"1","null","null",5,"""","<p>Do you think it's wrong?</p>","0","""","""",2021-11-01 21:05:41,"109.77.110.5","Mozilla/5.0 (X11; Ubuntu; Linux x86_64; rv:93.0) Gecko/20100101 Firefox/93.0",NA,"Firefox",93,"Ubuntu",NA,"3a61329f9539c1793efb98a4faa2e6fe",NA,NA,NA,NA,NA,NA,NA,NA,NA
10,"control","485","""","html-button-response",13,52264,"0.0-3.0-3.0-4.0-2.0","vt9gewf7j1ynym8",37,4,3077,8,2675,"Incest","control",2,3972,"1","null","null",6,0,0,1,0,1,0,0,0,0,0,1772,"1","null","null",2,2945,"1","null","null",5,"""","<p>Do you have a reason for your judgement?</p>","1","""","""",2021-11-01 21:05:41,"109.77.110.5","Mozilla/5.0 (X11; Ubuntu; Linux x86_64; rv:93.0) Gecko/20100101 Firefox/93.0",NA,"Firefox",93,"Ubuntu",NA,"3a61329f9539c1793efb98a4faa2e6fe",NA,NA,NA,NA,NA,NA,NA,NA,NA
10,"control","733","""","html-button-response",14,53001,"0.0-3.0-3.0-4.0-3.0","vt9gewf7j1ynym8",37,4,3077,8,2675,"Incest","control",2,3972,"1","null","null",6,0,0,1,0,1,0,0,0,0,0,1772,"1","null","null",2,2945,"1","null","null",5,"""","<p>And do you accept that they are both consenting adults, and that they both consented and enjoyed it?</p>","0","""","""",2021-11-01 21:05:41,"109.77.110.5","Mozilla/5.0 (X11; Ubuntu; Linux x86_64; rv:93.0) Gecko/20100101 Firefox/93.0",NA,"Firefox",93,"Ubuntu",NA,"3a61329f9539c1793efb98a4faa2e6fe",NA,NA,NA,NA,NA,NA,NA,NA,NA
10,"control","959","""","html-button-response",15,53962,"0.0-3.0-3.0-4.0-4.0","vt9gewf7j1ynym8",37,4,3077,8,2675,"Incest","control",2,3972,"1","null","null",6,0,0,1,0,1,0,0,0,0,0,1772,"1","null","null",2,2945,"1","null","null",5,"""","<p>Do you think it's wrong?</p>","1","""","""",2021-11-01 21:05:41,"109.77.110.5","Mozilla/5.0 (X11; Ubuntu; Linux x86_64; rv:93.0) Gecko/20100101 Firefox/93.0",NA,"Firefox",93,"Ubuntu",NA,"3a61329f9539c1793efb98a4faa2e6fe",NA,NA,NA,NA,NA,NA,NA,NA,NA
10,"control","1021","""","html-button-response",16,54986,"0.0-3.0-3.0-4.0-5.0","vt9gewf7j1ynym8",37,4,3077,8,2675,"Incest","control",2,3972,"1","null","null",6,0,0,1,0,1,0,0,0,0,0,1772,"1","null","null",2,2945,"1","null","null",5,"""","<p>Do you have a reason for your judgement?</p>","0","""","""",2021-11-01 21:05:41,"109.77.110.5","Mozilla/5.0 (X11; Ubuntu; Linux x86_64; rv:93.0) Gecko/20100101 Firefox/93.0",NA,"Firefox",93,"Ubuntu",NA,"3a61329f9539c1793efb98a4faa2e6fe",NA,NA,NA,NA,NA,NA,NA,NA,NA
10,"control","929","""","html-button-response",17,55918,"0.0-3.0-3.0-4.0-6.0","vt9gewf7j1ynym8",37,4,3077,8,2675,"Incest","control",2,3972,"1","null","null",6,0,0,1,0,1,0,0,0,0,0,1772,"1","null","null",2,2945,"1","null","null",5,"""","<p>And do you concede that nobody else was affected by their actions?</p>","0","""","""",2021-11-01 21:05:41,"109.77.110.5","Mozilla/5.0 (X11; Ubuntu; Linux x86_64; rv:93.0) Gecko/20100101 Firefox/93.0",NA,"Firefox",93,"Ubuntu",NA,"3a61329f9539c1793efb98a4faa2e6fe",NA,NA,NA,NA,NA,NA,NA,NA,NA
10,"control","881","""","html-button-response",18,56802,"0.0-3.0-3.0-4.0-7.0","vt9gewf7j1ynym8",37,4,3077,8,2675,"Incest","control",2,3972,"1","null","null",6,0,0,1,0,1,0,0,0,0,0,1772,"1","null","null",2,2945,"1","null","null",5,"""","<p>Do you think it's wrong?</p>","0","""","""",2021-11-01 21:05:41,"109.77.110.5","Mozilla/5.0 (X11; Ubuntu; Linux x86_64; rv:93.0) Gecko/20100101 Firefox/93.0",NA,"Firefox",93,"Ubuntu",NA,"3a61329f9539c1793efb98a4faa2e6fe",NA,NA,NA,NA,NA,NA,NA,NA,NA
10,"control","2917","""","html-button-response",19,59727,"0.0-3.0-3.0-4.0-8.0","vt9gewf7j1ynym8",37,4,3077,8,2675,"Incest","control",2,3972,"1","null","null",6,0,0,1,0,1,0,0,0,0,0,1772,"1","null","null",2,2945,"1","null","null",5,"""","<p>Do you have a reason for your judgement?</p>","0","""","""",2021-11-01 21:05:41,"109.77.110.5","Mozilla/5.0 (X11; Ubuntu; Linux x86_64; rv:93.0) Gecko/20100101 Firefox/93.0",NA,"Firefox",93,"Ubuntu",NA,"3a61329f9539c1793efb98a4faa2e6fe",NA,NA,NA,NA,NA,NA,NA,NA,NA
10,"control","1772","""","html-button-response",20,61500,"0.0-3.0-3.0-5.0-0.0","vt9gewf7j1ynym8",37,4,3077,8,2675,"Incest","control",2,3972,"1","null","null",6,0,0,1,0,1,0,0,0,0,0,1772,"1","null","null",2,2945,"1","null","null",5,"""","<p style='font-size:20px;'>Julie and Mark's behaviour did not harm anyone or negatively affect anyone.</p><p style='font-size:20px;'>How can there be anything wrong with what they did?</p>","0","""","""",2021-11-01 21:05:41,"109.77.110.5","Mozilla/5.0 (X11; Ubuntu; Linux x86_64; rv:93.0) Gecko/20100101 Firefox/93.0",NA,"Firefox",93,"Ubuntu",NA,"3a61329f9539c1793efb98a4faa2e6fe",NA,NA,NA,NA,NA,NA,NA,NA,NA
10,"control","2945","""","html-slider-response",21,64448,"0.0-3.0-3.0-6.0","vt9gewf7j1ynym8",37,4,3077,8,2675,"Incest","control",2,3972,"1","null","null",6,0,0,1,0,1,0,0,0,0,0,1772,"1","null","null",2,2945,"1","null","null",5,"""","<p>How would you rate the behaviour of Julie and Mark?</p><p>(1 = Morally Wrong; and 7 = Morally Right)</p>","""","""","2",2021-11-01 21:05:41,"109.77.110.5","Mozilla/5.0 (X11; Ubuntu; Linux x86_64; rv:93.0) Gecko/20100101 Firefox/93.0",NA,"Firefox",93,"Ubuntu",NA,"3a61329f9539c1793efb98a4faa2e6fe",NA,NA,NA,NA,NA,NA,NA,NA,NA
10,"control","13505","""","html-slider-response",22,77966,"0.0-3.0-3.0-7.0","vt9gewf7j1ynym8",37,4,3077,8,2675,"Incest","control",2,3972,"1","null","null",6,0,0,1,0,1,0,0,0,0,0,1772,"1","null","null",2,2945,"1","null","null",5,"""","<p>How confident are you about your judgement?</p><p>(1 = Not at all Confident; 7 = Extremely Confident)</p>","""","""","5",2021-11-01 21:05:41,"109.77.110.5","Mozilla/5.0 (X11; Ubuntu; Linux x86_64; rv:93.0) Gecko/20100101 Firefox/93.0",NA,"Firefox",93,"Ubuntu",NA,"3a61329f9539c1793efb98a4faa2e6fe",NA,NA,NA,NA,NA,NA,NA,NA,NA
10,"control","7683","debriefing_form.html","external-html",23,85931,"0.0-4.0","vt9gewf7j1ynym8",37,4,3077,8,2675,"Incest","control",2,3972,"1","null","null",6,0,0,1,0,1,0,0,0,0,0,1772,"1","null","null",2,2945,"1","null","null",5,"""","""","""","""","""",2021-11-01 21:05:41,"109.77.110.5","Mozilla/5.0 (X11; Ubuntu; Linux x86_64; rv:93.0) Gecko/20100101 Firefox/93.0",NA,"Firefox",93,"Ubuntu",NA,"3a61329f9539c1793efb98a4faa2e6fe",NA,NA,NA,NA,NA,NA,NA,NA,NA
1,"control","3684","information_sheet.html","external-html",0,4184,"0.0-0.0","hh4bmwnqcoyu730",18,1,1728,8,2909,"Jennifer","control",2,4523,"1","null","null",2,0,0,1,0,1,1,0,1,1,0,3522,"1","null","null",2,2803,"1","null","null",3,"""","""","""","""","""",2021-11-01 20:02:13,"109.77.110.5","Mozilla/5.0 (X11; Ubuntu; Linux x86_64; rv:93.0) Gecko/20100101 Firefox/93.0",NA,"Firefox",93,"Ubuntu",NA,"3a61329f9539c1793efb98a4faa2e6fe",NA,NA,NA,NA,NA,NA,NA,NA,NA
1,"control","2401","consent_form.html","external-html",1,7095,"0.0-1.0","hh4bmwnqcoyu730",18,1,1728,8,2909,"Jennifer","control",2,4523,"1","null","null",2,0,0,1,0,1,1,0,1,1,0,3522,"1","null","null",2,2803,"1","null","null",3,"""","""","""","""","""",2021-11-01 20:02:13,"109.77.110.5","Mozilla/5.0 (X11; Ubuntu; Linux x86_64; rv:93.0) Gecko/20100101 Firefox/93.0",NA,"Firefox",93,"Ubuntu",NA,"3a61329f9539c1793efb98a4faa2e6fe",NA,NA,NA,NA,NA,NA,NA,NA,NA
1,"control","9383","""","survey-text",2,16486,"0.0-2.0-0.0","hh4bmwnqcoyu730",18,1,1728,8,2909,"Jennifer","control",2,4523,"1","null","null",2,0,0,1,0,1,1,0,1,1,0,3522,"1","null","null",2,2803,"1","null","null",3,"{""age_q"":""18""}","""","""","""","""",2021-11-01 20:02:13,"109.77.110.5","Mozilla/5.0 (X11; Ubuntu; Linux x86_64; rv:93.0) Gecko/20100101 Firefox/93.0",NA,"Firefox",93,"Ubuntu",NA,"3a61329f9539c1793efb98a4faa2e6fe",NA,NA,NA,NA,NA,NA,NA,NA,NA
1,"control","1728","""","html-button-response",3,18233,"0.0-2.0-1.0-0.0","hh4bmwnqcoyu730",18,1,1728,8,2909,"Jennifer","control",2,4523,"1","null","null",2,0,0,1,0,1,1,0,1,1,0,3522,"1","null","null",2,2803,"1","null","null",3,"""","<p>Please select your gender:</p>","1","""","""",2021-11-01 20:02:13,"109.77.110.5","Mozilla/5.0 (X11; Ubuntu; Linux x86_64; rv:93.0) Gecko/20100101 Firefox/93.0",NA,"Firefox",93,"Ubuntu",NA,"3a61329f9539c1793efb98a4faa2e6fe",NA,NA,NA,NA,NA,NA,NA,NA,NA
1,"control","null","""","html-keyboard-response",4,18738,"0.0-3.0-0.0","hh4bmwnqcoyu730",18,1,1728,8,2909,"Jennifer","control",2,4523,"1","null","null",2,0,0,1,0,1,1,0,1,1,0,3522,"1","null","null",2,2803,"1","null","null",3,"""","""","""","null","""",2021-11-01 20:02:13,"109.77.110.5","Mozilla/5.0 (X11; Ubuntu; Linux x86_64; rv:93.0) Gecko/20100101 Firefox/93.0",NA,"Firefox",93,"Ubuntu",NA,"3a61329f9539c1793efb98a4faa2e6fe",NA,NA,NA,NA,NA,NA,NA,NA,NA
1,"control","2909","""","html-button-response",5,21650,"0.0-3.0-1.0","hh4bmwnqcoyu730",18,1,1728,8,2909,"Jennifer","control",2,4523,"1","null","null",2,0,0,1,0,1,1,0,1,1,0,3522,"1","null","null",2,2803,"1","null","null",3,"""","<img src=""img/attention1.png""><br><p>Please select a word that describes how you are currently feeling:","8","""","""",2021-11-01 20:02:13,"109.77.110.5","Mozilla/5.0 (X11; Ubuntu; Linux x86_64; rv:93.0) Gecko/20100101 Firefox/93.0",NA,"Firefox",93,"Ubuntu",NA,"3a61329f9539c1793efb98a4faa2e6fe",NA,NA,NA,NA,NA,NA,NA,NA,NA
1,"control","null","""","html-keyboard-response",6,22153,"0.0-3.0-2.0","hh4bmwnqcoyu730",18,1,1728,8,2909,"Jennifer","control",2,4523,"1","null","null",2,0,0,1,0,1,1,0,1,1,0,3522,"1","null","null",2,2803,"1","null","null",3,"""","""","""","null","""",2021-11-01 20:02:13,"109.77.110.5","Mozilla/5.0 (X11; Ubuntu; Linux x86_64; rv:93.0) Gecko/20100101 Firefox/93.0",NA,"Firefox",93,"Ubuntu",NA,"3a61329f9539c1793efb98a4faa2e6fe",NA,NA,NA,NA,NA,NA,NA,NA,NA
1,"control","1808","""","html-button-response",7,23969,"0.0-3.0-3.0-0.0","hh4bmwnqcoyu730",18,1,1728,8,2909,"Jennifer","control",2,4523,"1","null","null",2,0,0,1,0,1,1,0,1,1,0,3522,"1","null","null",2,2803,"1","null","null",3,"""","<p>You will shortly be presented with a scenario. Following this you will be asked a series of questions</p><p>","0","""","""",2021-11-01 20:02:13,"109.77.110.5","Mozilla/5.0 (X11; Ubuntu; Linux x86_64; rv:93.0) Gecko/20100101 Firefox/93.0",NA,"Firefox",93,"Ubuntu",NA,"3a61329f9539c1793efb98a4faa2e6fe",NA,NA,NA,NA,NA,NA,NA,NA,NA
1,"control","1150","""","html-button-response",8,25123,"0.0-3.0-3.0-1.0","hh4bmwnqcoyu730",18,1,1728,8,2909,"Jennifer","control",2,4523,"1","null","null",2,0,0,1,0,1,1,0,1,1,0,3522,"1","null","null",2,2803,"1","null","null",3,"""","<p style=""max-width: 800px; text-align: left; font-size: 18px"">Jennifer works in a medical school pathology lab as a research assistant. The lab prepares human cadavers that are used to teach medical students about anatomy. The cadavers come from people who had donated their body to science for research. One night Jennifer is leaving the lab when she sees a body that is going to be discarded the next day. Jennifer was a vegetarian, for moral reasons. She thought it was wrong to kill animals for food. But then, when she saw a body about to be cremated, she thought it was irrational to waste perfectly edible meat. So she cut off a piece of flesh, and took it home and cooked it. The person had died recently of a heart attack, and she cooked the meat thoroughly, so there was no risk of disease.</p>","0","""","""",2021-11-01 20:02:13,"109.77.110.5","Mozilla/5.0 (X11; Ubuntu; Linux x86_64; rv:93.0) Gecko/20100101 Firefox/93.0",NA,"Firefox",93,"Ubuntu",NA,"3a61329f9539c1793efb98a4faa2e6fe",NA,NA,NA,NA,NA,NA,NA,NA,NA
1,"control","4523","""","html-slider-response",9,29660,"0.0-3.0-3.0-2.0","hh4bmwnqcoyu730",18,1,1728,8,2909,"Jennifer","control",2,4523,"1","null","null",2,0,0,1,0,1,1,0,1,1,0,3522,"1","null","null",2,2803,"1","null","null",3,"""","<p>How would you rate the behaviour of Jennifer?</p><p>(1 = Morally Wrong; 7 = Morally Right)</p>","""","""","2",2021-11-01 20:02:13,"109.77.110.5","Mozilla/5.0 (X11; Ubuntu; Linux x86_64; rv:93.0) Gecko/20100101 Firefox/93.0",NA,"Firefox",93,"Ubuntu",NA,"3a61329f9539c1793efb98a4faa2e6fe",NA,NA,NA,NA,NA,NA,NA,NA,NA
1,"control","2207","""","html-slider-response",10,31880,"0.0-3.0-3.0-3.0","hh4bmwnqcoyu730",18,1,1728,8,2909,"Jennifer","control",2,4523,"1","null","null",2,0,0,1,0,1,1,0,1,1,0,3522,"1","null","null",2,2803,"1","null","null",3,"""","<p>How confident are you about your judgement?</p><p>(1 = Not at all Confident; 7 = Extremely Confident)</p>","""","""","2",2021-11-01 20:02:13,"109.77.110.5","Mozilla/5.0 (X11; Ubuntu; Linux x86_64; rv:93.0) Gecko/20100101 Firefox/93.0",NA,"Firefox",93,"Ubuntu",NA,"3a61329f9539c1793efb98a4faa2e6fe",NA,NA,NA,NA,NA,NA,NA,NA,NA
1,"control","1398","""","html-button-response",11,33281,"0.0-3.0-3.0-4.0-0.0","hh4bmwnqcoyu730",18,1,1728,8,2909,"Jennifer","control",2,4523,"1","null","null",2,0,0,1,0,1,1,0,1,1,0,3522,"1","null","null",2,2803,"1","null","null",3,"""","<p>The body had been donated for research, it was to be discarded the next day. You must agree then that it had obviously fulfilled its purpose?</p>","0","""","""",2021-11-01 20:02:13,"109.77.110.5","Mozilla/5.0 (X11; Ubuntu; Linux x86_64; rv:93.0) Gecko/20100101 Firefox/93.0",NA,"Firefox",93,"Ubuntu",NA,"3a61329f9539c1793efb98a4faa2e6fe",NA,NA,NA,NA,NA,NA,NA,NA,NA
1,"control","803","""","html-button-response",12,34088,"0.0-3.0-3.0-4.0-1.0","hh4bmwnqcoyu730",18,1,1728,8,2909,"Jennifer","control",2,4523,"1","null","null",2,0,0,1,0,1,1,0,1,1,0,3522,"1","null","null",2,2803,"1","null","null",3,"""","<p>Do you think it's wrong?</p>","0","""","""",2021-11-01 20:02:13,"109.77.110.5","Mozilla/5.0 (X11; Ubuntu; Linux x86_64; rv:93.0) Gecko/20100101 Firefox/93.0",NA,"Firefox",93,"Ubuntu",NA,"3a61329f9539c1793efb98a4faa2e6fe",NA,NA,NA,NA,NA,NA,NA,NA,NA
1,"control","428","""","html-button-response",13,34518,"0.0-3.0-3.0-4.0-2.0","hh4bmwnqcoyu730",18,1,1728,8,2909,"Jennifer","control",2,4523,"1","null","null",2,0,0,1,0,1,1,0,1,1,0,3522,"1","null","null",2,2803,"1","null","null",3,"""","<p>Do you have a reason for your judgement?</p>","1","""","""",2021-11-01 20:02:13,"109.77.110.5","Mozilla/5.0 (X11; Ubuntu; Linux x86_64; rv:93.0) Gecko/20100101 Firefox/93.0",NA,"Firefox",93,"Ubuntu",NA,"3a61329f9539c1793efb98a4faa2e6fe",NA,NA,NA,NA,NA,NA,NA,NA,NA
1,"control","531","""","html-button-response",14,35052,"0.0-3.0-3.0-4.0-3.0","hh4bmwnqcoyu730",18,1,1728,8,2909,"Jennifer","control",2,4523,"1","null","null",2,0,0,1,0,1,1,0,1,1,0,3522,"1","null","null",2,2803,"1","null","null",3,"""","<p>Do you accept that the body was already dead?</p>","0","""","""",2021-11-01 20:02:13,"109.77.110.5","Mozilla/5.0 (X11; Ubuntu; Linux x86_64; rv:93.0) Gecko/20100101 Firefox/93.0",NA,"Firefox",93,"Ubuntu",NA,"3a61329f9539c1793efb98a4faa2e6fe",NA,NA,NA,NA,NA,NA,NA,NA,NA
1,"control","524","""","html-button-response",15,35585,"0.0-3.0-3.0-4.0-4.0","hh4bmwnqcoyu730",18,1,1728,8,2909,"Jennifer","control",2,4523,"1","null","null",2,0,0,1,0,1,1,0,1,1,0,3522,"1","null","null",2,2803,"1","null","null",3,"""","<p>Do you think it's wrong?</p>","1","""","""",2021-11-01 20:02:13,"109.77.110.5","Mozilla/5.0 (X11; Ubuntu; Linux x86_64; rv:93.0) Gecko/20100101 Firefox/93.0",NA,"Firefox",93,"Ubuntu",NA,"3a61329f9539c1793efb98a4faa2e6fe",NA,NA,NA,NA,NA,NA,NA,NA,NA
1,"control","435","""","html-button-response",16,36024,"0.0-3.0-3.0-4.0-5.0","hh4bmwnqcoyu730",18,1,1728,8,2909,"Jennifer","control",2,4523,"1","null","null",2,0,0,1,0,1,1,0,1,1,0,3522,"1","null","null",2,2803,"1","null","null",3,"""","<p>Do you have a reason for your judgement?</p>","1","""","""",2021-11-01 20:02:13,"109.77.110.5","Mozilla/5.0 (X11; Ubuntu; Linux x86_64; rv:93.0) Gecko/20100101 Firefox/93.0",NA,"Firefox",93,"Ubuntu",NA,"3a61329f9539c1793efb98a4faa2e6fe",NA,NA,NA,NA,NA,NA,NA,NA,NA
1,"control","604","""","html-button-response",17,36631,"0.0-3.0-3.0-4.0-6.0","hh4bmwnqcoyu730",18,1,1728,8,2909,"Jennifer","control",2,4523,"1","null","null",2,0,0,1,0,1,1,0,1,1,0,3522,"1","null","null",2,2803,"1","null","null",3,"""","<p>And do you accept that there was no risk of disease?</p>","0","""","""",2021-11-01 20:02:13,"109.77.110.5","Mozilla/5.0 (X11; Ubuntu; Linux x86_64; rv:93.0) Gecko/20100101 Firefox/93.0",NA,"Firefox",93,"Ubuntu",NA,"3a61329f9539c1793efb98a4faa2e6fe",NA,NA,NA,NA,NA,NA,NA,NA,NA
1,"control","859","""","html-button-response",18,37494,"0.0-3.0-3.0-4.0-7.0","hh4bmwnqcoyu730",18,1,1728,8,2909,"Jennifer","control",2,4523,"1","null","null",2,0,0,1,0,1,1,0,1,1,0,3522,"1","null","null",2,2803,"1","null","null",3,"""","<p>Do you think it's wrong?</p>","1","""","""",2021-11-01 20:02:13,"109.77.110.5","Mozilla/5.0 (X11; Ubuntu; Linux x86_64; rv:93.0) Gecko/20100101 Firefox/93.0",NA,"Firefox",93,"Ubuntu",NA,"3a61329f9539c1793efb98a4faa2e6fe",NA,NA,NA,NA,NA,NA,NA,NA,NA
1,"control","514","""","html-button-response",19,38010,"0.0-3.0-3.0-4.0-8.0","hh4bmwnqcoyu730",18,1,1728,8,2909,"Jennifer","control",2,4523,"1","null","null",2,0,0,1,0,1,1,0,1,1,0,3522,"1","null","null",2,2803,"1","null","null",3,"""","<p>Do you have a reason for your judgement?</p>","1","""","""",2021-11-01 20:02:13,"109.77.110.5","Mozilla/5.0 (X11; Ubuntu; Linux x86_64; rv:93.0) Gecko/20100101 Firefox/93.0",NA,"Firefox",93,"Ubuntu",NA,"3a61329f9539c1793efb98a4faa2e6fe",NA,NA,NA,NA,NA,NA,NA,NA,NA
1,"control","3522","""","html-button-response",20,41534,"0.0-3.0-3.0-5.0-0.0","hh4bmwnqcoyu730",18,1,1728,8,2909,"Jennifer","control",2,4523,"1","null","null",2,0,0,1,0,1,1,0,1,1,0,3522,"1","null","null",2,2803,"1","null","null",3,"""","<p style='font-size:20px;'>Jennifer's actions did not harm anyone, or negatively affect anyone. </p><p style='font-size:20px;'>How can there be anything wrong with what they did?</p>","0","""","""",2021-11-01 20:02:13,"109.77.110.5","Mozilla/5.0 (X11; Ubuntu; Linux x86_64; rv:93.0) Gecko/20100101 Firefox/93.0",NA,"Firefox",93,"Ubuntu",NA,"3a61329f9539c1793efb98a4faa2e6fe",NA,NA,NA,NA,NA,NA,NA,NA,NA
1,"control","2803","""","html-slider-response",21,44352,"0.0-3.0-3.0-6.0","hh4bmwnqcoyu730",18,1,1728,8,2909,"Jennifer","control",2,4523,"1","null","null",2,0,0,1,0,1,1,0,1,1,0,3522,"1","null","null",2,2803,"1","null","null",3,"""","<p>How would you rate the behaviour of Jennifer?</p><p>(1 = Morally Wrong; 7 = Morally Right)</p>","""","""","2",2021-11-01 20:02:13,"109.77.110.5","Mozilla/5.0 (X11; Ubuntu; Linux x86_64; rv:93.0) Gecko/20100101 Firefox/93.0",NA,"Firefox",93,"Ubuntu",NA,"3a61329f9539c1793efb98a4faa2e6fe",NA,NA,NA,NA,NA,NA,NA,NA,NA
1,"control","47537","""","html-slider-response",22,91893,"0.0-3.0-3.0-7.0","hh4bmwnqcoyu730",18,1,1728,8,2909,"Jennifer","control",2,4523,"1","null","null",2,0,0,1,0,1,1,0,1,1,0,3522,"1","null","null",2,2803,"1","null","null",3,"""","<p>How confident are you about your judgement?</p><p>(1 = Not at all Confident; 7 = Extremely Confident)</p>","""","""","3",2021-11-01 20:02:13,"109.77.110.5","Mozilla/5.0 (X11; Ubuntu; Linux x86_64; rv:93.0) Gecko/20100101 Firefox/93.0",NA,"Firefox",93,"Ubuntu",NA,"3a61329f9539c1793efb98a4faa2e6fe",NA,NA,NA,NA,NA,NA,NA,NA,NA
1,"control","2331","debriefing_form.html","external-html",23,95024,"0.0-4.0","hh4bmwnqcoyu730",18,1,1728,8,2909,"Jennifer","control",2,4523,"1","null","null",2,0,0,1,0,1,1,0,1,1,0,3522,"1","null","null",2,2803,"1","null","null",3,"""","""","""","""","""",2021-11-01 20:02:13,"109.77.110.5","Mozilla/5.0 (X11; Ubuntu; Linux x86_64; rv:93.0) Gecko/20100101 Firefox/93.0",NA,"Firefox",93,"Ubuntu",NA,"3a61329f9539c1793efb98a4faa2e6fe",NA,NA,NA,NA,NA,NA,NA,NA,NA
11,"cog_load","48863","information_sheet.html","external-html",0,49316,"0.0-0.0","cok0wbmz3x7g9n4",39,1,1524,8,29252,"Trolley","cog_load",1,7335,"null","null","1",6,1,0,0,1,0,0,1,0,2,2,1468,"null","null","1",3,3076,"null","null","1",6,"""","""","""","""","""",2021-11-01 21:14:18,"109.77.110.5","Mozilla/5.0 (X11; Ubuntu; Linux x86_64; rv:93.0) Gecko/20100101 Firefox/93.0",NA,"Firefox",93,"Ubuntu",NA,"3a61329f9539c1793efb98a4faa2e6fe",2,"null","1","null",2,1,"killing is wrong",2,NA
11,"cog_load","2554","consent_form.html","external-html",1,52105,"0.0-1.0","cok0wbmz3x7g9n4",39,1,1524,8,29252,"Trolley","cog_load",1,7335,"null","null","1",6,1,0,0,1,0,0,1,0,2,2,1468,"null","null","1",3,3076,"null","null","1",6,"""","""","""","""","""",2021-11-01 21:14:18,"109.77.110.5","Mozilla/5.0 (X11; Ubuntu; Linux x86_64; rv:93.0) Gecko/20100101 Firefox/93.0",NA,"Firefox",93,"Ubuntu",NA,"3a61329f9539c1793efb98a4faa2e6fe",2,"null","1","null",2,1,"killing is wrong",2,NA
11,"cog_load","5992","""","survey-text",2,58121,"0.0-2.0-0.0","cok0wbmz3x7g9n4",39,1,1524,8,29252,"Trolley","cog_load",1,7335,"null","null","1",6,1,0,0,1,0,0,1,0,2,2,1468,"null","null","1",3,3076,"null","null","1",6,"{""age_q"":""39""}","""","""","""","""",2021-11-01 21:14:18,"109.77.110.5","Mozilla/5.0 (X11; Ubuntu; Linux x86_64; rv:93.0) Gecko/20100101 Firefox/93.0",NA,"Firefox",93,"Ubuntu",NA,"3a61329f9539c1793efb98a4faa2e6fe",2,"null","1","null",2,1,"killing is wrong",2,NA
11,"cog_load","1524","""","html-button-response",3,59655,"0.0-2.0-1.0-0.0","cok0wbmz3x7g9n4",39,1,1524,8,29252,"Trolley","cog_load",1,7335,"null","null","1",6,1,0,0,1,0,0,1,0,2,2,1468,"null","null","1",3,3076,"null","null","1",6,"""","<p>Please select your gender:</p>","1","""","""",2021-11-01 21:14:18,"109.77.110.5","Mozilla/5.0 (X11; Ubuntu; Linux x86_64; rv:93.0) Gecko/20100101 Firefox/93.0",NA,"Firefox",93,"Ubuntu",NA,"3a61329f9539c1793efb98a4faa2e6fe",2,"null","1","null",2,1,"killing is wrong",2,NA
11,"cog_load","1036","""","html-button-response",4,60695,"0.0-3.0-0.0-0.0-0.0","cok0wbmz3x7g9n4",39,1,1524,8,29252,"Trolley","cog_load",1,7335,"null","null","1",6,1,0,0,1,0,0,1,0,2,2,1468,"null","null","1",3,3076,"null","null","1",6,"""","<ul><p style=""text-align: left""><b>Attention task - Instructions</b></p><li><p style=""text-align: left"">Part of this study will involve completing an attention / memory task at the same time as answering a question.</p></li><li><p style=""text-align: left"">Some question pages include a video displaying a stream of numbers scrolling, displayed directly above the question text.</p></li><li><p style=""text-align: left"">You will be asked to count how many times a particular number appears in this video, while answering the question at the same time.<br>(You may find it useful to tap your finger each time you see the number)</p></li><li><p style=""text-align: left"">These question pages will expire when you answer the question or after 20 seconds (whichever is sooner). You will only have three attempts to answer the question.</p></li><li><p style=""text-align: left"">On the page immediately following this attention task, <b>you will be asked to report</b> how many times the target number appeared.<br>(accuracy of responses will be determined by combining responses data with reaction time data)</p></li><li><p style=""text-align: left"">Click ""Continue"" to proceed to an example of what these attention task pages will look like.</p></li></ul>","0","""","""",2021-11-01 21:14:18,"109.77.110.5","Mozilla/5.0 (X11; Ubuntu; Linux x86_64; rv:93.0) Gecko/20100101 Firefox/93.0",NA,"Firefox",93,"Ubuntu",NA,"3a61329f9539c1793efb98a4faa2e6fe",2,"null","1","null",2,1,"killing is wrong",2,NA
11,"cog_load","1604","""","html-button-response",5,62343,"0.0-3.0-0.0-0.0-1.0","cok0wbmz3x7g9n4",39,1,1524,8,29252,"Trolley","cog_load",1,7335,"null","null","1",6,1,0,0,1,0,0,1,0,2,2,1468,"null","null","1",3,3076,"null","null","1",6,"""","<p><b>Example</b></p><br><video autoplay muted><source src='video/num_scroll_test7.mp4' type='video/mp4'></video><br><p>[Question text will go here. Click any response to continue]","1","""","""",2021-11-01 21:14:18,"109.77.110.5","Mozilla/5.0 (X11; Ubuntu; Linux x86_64; rv:93.0) Gecko/20100101 Firefox/93.0",NA,"Firefox",93,"Ubuntu",NA,"3a61329f9539c1793efb98a4faa2e6fe",2,"null","1","null",2,1,"killing is wrong",2,NA
11,"cog_load","16408","""","html-button-response",6,79156,"0.0-3.0-0.0-0.0-2.0","cok0wbmz3x7g9n4",39,1,1524,8,29252,"Trolley","cog_load",1,7335,"null","null","1",6,1,0,0,1,0,0,1,0,2,2,1468,"null","null","1",3,3076,"null","null","1",6,"""","<p style=""text-align: left"">The next page contains a practice trial</p><p style=""text-align: left"">On the next page you will be presented with a <i>number scroll</i> video, along with a question.</p><br><p style=""text-align: left; font-size:20px;"">Please count how many times you see the number:<br></p><p style=""font-size:40px;""><b>eight: 8</b></p>","0","""","""",2021-11-01 21:14:18,"109.77.110.5","Mozilla/5.0 (X11; Ubuntu; Linux x86_64; rv:93.0) Gecko/20100101 Firefox/93.0",NA,"Firefox",93,"Ubuntu",NA,"3a61329f9539c1793efb98a4faa2e6fe",2,"null","1","null",2,1,"killing is wrong",2,NA
11,"cog_load","null","""","html-keyboard-response",7,79670,"0.0-3.0-0.0-0.0-3.0-0.0","cok0wbmz3x7g9n4",39,1,1524,8,29252,"Trolley","cog_load",1,7335,"null","null","1",6,1,0,0,1,0,0,1,0,2,2,1468,"null","null","1",3,3076,"null","null","1",6,"""","""","""","null","""",2021-11-01 21:14:18,"109.77.110.5","Mozilla/5.0 (X11; Ubuntu; Linux x86_64; rv:93.0) Gecko/20100101 Firefox/93.0",NA,"Firefox",93,"Ubuntu",NA,"3a61329f9539c1793efb98a4faa2e6fe",2,"null","1","null",2,1,"killing is wrong",2,NA
11,"cog_load","null","""","html-keyboard-response",8,80274,"0.0-3.0-0.0-0.0-3.0-1.0","cok0wbmz3x7g9n4",39,1,1524,8,29252,"Trolley","cog_load",1,7335,"null","null","1",6,1,0,0,1,0,0,1,0,2,2,1468,"null","null","1",3,3076,"null","null","1",6,"""","<div style=""font-size:60px;"">3</div>","""","null","""",2021-11-01 21:14:18,"109.77.110.5","Mozilla/5.0 (X11; Ubuntu; Linux x86_64; rv:93.0) Gecko/20100101 Firefox/93.0",NA,"Firefox",93,"Ubuntu",NA,"3a61329f9539c1793efb98a4faa2e6fe",2,"null","1","null",2,1,"killing is wrong",2,NA
11,"cog_load","null","""","html-keyboard-response",9,81277,"0.0-3.0-0.0-0.0-3.0-2.0","cok0wbmz3x7g9n4",39,1,1524,8,29252,"Trolley","cog_load",1,7335,"null","null","1",6,1,0,0,1,0,0,1,0,2,2,1468,"null","null","1",3,3076,"null","null","1",6,"""","<div style=""font-size:60px;"">2</div>","""","null","""",2021-11-01 21:14:18,"109.77.110.5","Mozilla/5.0 (X11; Ubuntu; Linux x86_64; rv:93.0) Gecko/20100101 Firefox/93.0",NA,"Firefox",93,"Ubuntu",NA,"3a61329f9539c1793efb98a4faa2e6fe",2,"null","1","null",2,1,"killing is wrong",2,NA
11,"cog_load","null","""","html-keyboard-response",10,82280,"0.0-3.0-0.0-0.0-3.0-3.0","cok0wbmz3x7g9n4",39,1,1524,8,29252,"Trolley","cog_load",1,7335,"null","null","1",6,1,0,0,1,0,0,1,0,2,2,1468,"null","null","1",3,3076,"null","null","1",6,"""","<div style=""font-size:60px;"">1</div>","""","null","""",2021-11-01 21:14:18,"109.77.110.5","Mozilla/5.0 (X11; Ubuntu; Linux x86_64; rv:93.0) Gecko/20100101 Firefox/93.0",NA,"Firefox",93,"Ubuntu",NA,"3a61329f9539c1793efb98a4faa2e6fe",2,"null","1","null",2,1,"killing is wrong",2,NA
11,"cog_load","null","""","html-button-response",11,102690,"0.0-3.0-0.0-0.0-4.0-0.0","cok0wbmz3x7g9n4",39,1,1524,8,29252,"Trolley","cog_load",1,7335,"null","null","1",6,1,0,0,1,0,0,1,0,2,2,1468,"null","null","1",3,3076,"null","null","1",6,"""","<p><b>Example</b></p><video autoplay muted><source src='video/num_scroll_test9.mp4' type='video/mp4'></video><br><p>Do you find multi-tasking difficult?</p>","null","""","""",2021-11-01 21:14:18,"109.77.110.5","Mozilla/5.0 (X11; Ubuntu; Linux x86_64; rv:93.0) Gecko/20100101 Firefox/93.0",NA,"Firefox",93,"Ubuntu",NA,"3a61329f9539c1793efb98a4faa2e6fe",2,"null","1","null",2,1,"killing is wrong",2,NA
11,"cog_load","null","""","html-keyboard-response",12,103199,"0.0-3.0-0.0-0.0-4.0-1.0-0.0-0.0","cok0wbmz3x7g9n4",39,1,1524,8,29252,"Trolley","cog_load",1,7335,"null","null","1",6,1,0,0,1,0,0,1,0,2,2,1468,"null","null","1",3,3076,"null","null","1",6,"""","""","""","null","""",2021-11-01 21:14:18,"109.77.110.5","Mozilla/5.0 (X11; Ubuntu; Linux x86_64; rv:93.0) Gecko/20100101 Firefox/93.0",NA,"Firefox",93,"Ubuntu",NA,"3a61329f9539c1793efb98a4faa2e6fe",2,"null","1","null",2,1,"killing is wrong",2,NA
11,"cog_load","null","""","html-keyboard-response",13,105201,"0.0-3.0-0.0-0.0-4.0-1.0-0.0-1.0","cok0wbmz3x7g9n4",39,1,1524,8,29252,"Trolley","cog_load",1,7335,"null","null","1",6,1,0,0,1,0,0,1,0,2,2,1468,"null","null","1",3,3076,"null","null","1",6,"""","<p>Oops! Your time has run out. Please try again.</p>","""","null","""",2021-11-01 21:14:18,"109.77.110.5","Mozilla/5.0 (X11; Ubuntu; Linux x86_64; rv:93.0) Gecko/20100101 Firefox/93.0",NA,"Firefox",93,"Ubuntu",NA,"3a61329f9539c1793efb98a4faa2e6fe",2,"null","1","null",2,1,"killing is wrong",2,NA
11,"cog_load","null","""","html-keyboard-response",14,105702,"0.0-3.0-0.0-0.0-4.0-1.0-1.0-0.0","cok0wbmz3x7g9n4",39,1,1524,8,29252,"Trolley","cog_load",1,7335,"null","null","1",6,1,0,0,1,0,0,1,0,2,2,1468,"null","null","1",3,3076,"null","null","1",6,"""","""","""","null","""",2021-11-01 21:14:18,"109.77.110.5","Mozilla/5.0 (X11; Ubuntu; Linux x86_64; rv:93.0) Gecko/20100101 Firefox/93.0",NA,"Firefox",93,"Ubuntu",NA,"3a61329f9539c1793efb98a4faa2e6fe",2,"null","1","null",2,1,"killing is wrong",2,NA
11,"cog_load","null","""","html-keyboard-response",15,106303,"0.0-3.0-0.0-0.0-4.0-1.0-1.0-1.0","cok0wbmz3x7g9n4",39,1,1524,8,29252,"Trolley","cog_load",1,7335,"null","null","1",6,1,0,0,1,0,0,1,0,2,2,1468,"null","null","1",3,3076,"null","null","1",6,"""","<div style=""font-size:60px;"">3</div>","""","null","""",2021-11-01 21:14:18,"109.77.110.5","Mozilla/5.0 (X11; Ubuntu; Linux x86_64; rv:93.0) Gecko/20100101 Firefox/93.0",NA,"Firefox",93,"Ubuntu",NA,"3a61329f9539c1793efb98a4faa2e6fe",2,"null","1","null",2,1,"killing is wrong",2,NA
11,"cog_load","null","""","html-keyboard-response",16,107305,"0.0-3.0-0.0-0.0-4.0-1.0-1.0-2.0","cok0wbmz3x7g9n4",39,1,1524,8,29252,"Trolley","cog_load",1,7335,"null","null","1",6,1,0,0,1,0,0,1,0,2,2,1468,"null","null","1",3,3076,"null","null","1",6,"""","<div style=""font-size:60px;"">2</div>","""","null","""",2021-11-01 21:14:18,"109.77.110.5","Mozilla/5.0 (X11; Ubuntu; Linux x86_64; rv:93.0) Gecko/20100101 Firefox/93.0",NA,"Firefox",93,"Ubuntu",NA,"3a61329f9539c1793efb98a4faa2e6fe",2,"null","1","null",2,1,"killing is wrong",2,NA
11,"cog_load","null","""","html-keyboard-response",17,108308,"0.0-3.0-0.0-0.0-4.0-1.0-1.0-3.0","cok0wbmz3x7g9n4",39,1,1524,8,29252,"Trolley","cog_load",1,7335,"null","null","1",6,1,0,0,1,0,0,1,0,2,2,1468,"null","null","1",3,3076,"null","null","1",6,"""","<div style=""font-size:60px;"">1</div>","""","null","""",2021-11-01 21:14:18,"109.77.110.5","Mozilla/5.0 (X11; Ubuntu; Linux x86_64; rv:93.0) Gecko/20100101 Firefox/93.0",NA,"Firefox",93,"Ubuntu",NA,"3a61329f9539c1793efb98a4faa2e6fe",2,"null","1","null",2,1,"killing is wrong",2,NA
11,"cog_load","11517","""","html-button-response",18,120238,"0.0-3.0-0.0-0.0-4.0-1.0-2.0","cok0wbmz3x7g9n4",39,1,1524,8,29252,"Trolley","cog_load",1,7335,"null","null","1",6,1,0,0,1,0,0,1,0,2,2,1468,"null","null","1",3,3076,"null","null","1",6,"""","<p><b>Example</b></p><video autoplay muted><source src='video/num_scroll_test9.mp4' type='video/mp4'></video><br><p>Do you find multi-tasking difficult?</p>","2","""","""",2021-11-01 21:14:18,"109.77.110.5","Mozilla/5.0 (X11; Ubuntu; Linux x86_64; rv:93.0) Gecko/20100101 Firefox/93.0",NA,"Firefox",93,"Ubuntu",NA,"3a61329f9539c1793efb98a4faa2e6fe",2,"null","1","null",2,1,"killing is wrong",2,NA
11,"cog_load","21176","""","survey-text",19,141423,"0.0-3.0-0.0-0.0-5.0","cok0wbmz3x7g9n4",39,1,1524,8,29252,"Trolley","cog_load",1,7335,"null","null","1",6,1,0,0,1,0,0,1,0,2,2,1468,"null","null","1",3,3076,"null","null","1",6,"{""Q0"":""2""}","""","""","""","""",2021-11-01 21:14:18,"109.77.110.5","Mozilla/5.0 (X11; Ubuntu; Linux x86_64; rv:93.0) Gecko/20100101 Firefox/93.0",NA,"Firefox",93,"Ubuntu",NA,"3a61329f9539c1793efb98a4faa2e6fe",2,"null","1","null",2,1,"killing is wrong",2,NA
11,"cog_load","null","""","html-keyboard-response",20,141931,"0.0-3.0-0.0-1.0","cok0wbmz3x7g9n4",39,1,1524,8,29252,"Trolley","cog_load",1,7335,"null","null","1",6,1,0,0,1,0,0,1,0,2,2,1468,"null","null","1",3,3076,"null","null","1",6,"""","""","""","null","""",2021-11-01 21:14:18,"109.77.110.5","Mozilla/5.0 (X11; Ubuntu; Linux x86_64; rv:93.0) Gecko/20100101 Firefox/93.0",NA,"Firefox",93,"Ubuntu",NA,"3a61329f9539c1793efb98a4faa2e6fe",2,"null","1","null",2,1,"killing is wrong",2,NA
11,"cog_load","29252","""","html-button-response",21,171185,"0.0-3.0-0.0-2.0","cok0wbmz3x7g9n4",39,1,1524,8,29252,"Trolley","cog_load",1,7335,"null","null","1",6,1,0,0,1,0,0,1,0,2,2,1468,"null","null","1",3,3076,"null","null","1",6,"""","<img src=""img/attention1.png""><br><p>Please select a word that describes how you are currently feeling:","8","""","""",2021-11-01 21:14:18,"109.77.110.5","Mozilla/5.0 (X11; Ubuntu; Linux x86_64; rv:93.0) Gecko/20100101 Firefox/93.0",NA,"Firefox",93,"Ubuntu",NA,"3a61329f9539c1793efb98a4faa2e6fe",2,"null","1","null",2,1,"killing is wrong",2,NA
11,"cog_load","null","""","html-keyboard-response",22,171698,"0.0-3.0-0.0-3.0","cok0wbmz3x7g9n4",39,1,1524,8,29252,"Trolley","cog_load",1,7335,"null","null","1",6,1,0,0,1,0,0,1,0,2,2,1468,"null","null","1",3,3076,"null","null","1",6,"""","""","""","null","""",2021-11-01 21:14:18,"109.77.110.5","Mozilla/5.0 (X11; Ubuntu; Linux x86_64; rv:93.0) Gecko/20100101 Firefox/93.0",NA,"Firefox",93,"Ubuntu",NA,"3a61329f9539c1793efb98a4faa2e6fe",2,"null","1","null",2,1,"killing is wrong",2,NA
11,"cog_load","2298","""","html-button-response",23,173999,"0.0-3.0-1.0-0.0","cok0wbmz3x7g9n4",39,1,1524,8,29252,"Trolley","cog_load",1,7335,"null","null","1",6,1,0,0,1,0,0,1,0,2,2,1468,"null","null","1",3,3076,"null","null","1",6,"""","<p>You will shortly be presented with a scenario. Following this you will be asked a series of questions</p><p>","0","""","""",2021-11-01 21:14:18,"109.77.110.5","Mozilla/5.0 (X11; Ubuntu; Linux x86_64; rv:93.0) Gecko/20100101 Firefox/93.0",NA,"Firefox",93,"Ubuntu",NA,"3a61329f9539c1793efb98a4faa2e6fe",2,"null","1","null",2,1,"killing is wrong",2,NA
11,"cog_load","1690","""","html-button-response",24,175695,"0.0-3.0-1.0-1.0","cok0wbmz3x7g9n4",39,1,1524,8,29252,"Trolley","cog_load",1,7335,"null","null","1",6,1,0,0,1,0,0,1,0,2,2,1468,"null","null","1",3,3076,"null","null","1",6,"""","<p style='max-width: 800px; text-align: left; font-size: 18px'>A Trolley is hurtling down a track towards five people. It will kill them all on impact. Paul is on a bridge under which it will pass. He can stop it by putting something very heavy in front of it. As it happens, there is a very fat man next to him. Paul's only way to stop the trolley is to push him over the bridge and onto the track, killing him to save five. Paul decides to push the man.</p>","0","""","""",2021-11-01 21:14:18,"109.77.110.5","Mozilla/5.0 (X11; Ubuntu; Linux x86_64; rv:93.0) Gecko/20100101 Firefox/93.0",NA,"Firefox",93,"Ubuntu",NA,"3a61329f9539c1793efb98a4faa2e6fe",2,"null","1","null",2,1,"killing is wrong",2,NA
11,"cog_load","1223","""","html-button-response",25,176921,"0.0-3.0-1.0-2.0","cok0wbmz3x7g9n4",39,1,1524,8,29252,"Trolley","cog_load",1,7335,"null","null","1",6,1,0,0,1,0,0,1,0,2,2,1468,"null","null","1",3,3076,"null","null","1",6,"""","<p style=""text-align: left"">The next page contains a <b>question</b> and an <b>attention task</b> (<i>number scroll</i> video)</p><br><p style=""text-align: left; font-size:20px;"">While answering the question, please count how many times you see the number below:<br></p><p style=""font-size:40px;""><b>zero: 0</b></p><p>(The next page will expire within 20 seconds)</br>(You will have 3 attempts at this question)</p>","0","""","""",2021-11-01 21:14:18,"109.77.110.5","Mozilla/5.0 (X11; Ubuntu; Linux x86_64; rv:93.0) Gecko/20100101 Firefox/93.0",NA,"Firefox",93,"Ubuntu",NA,"3a61329f9539c1793efb98a4faa2e6fe",2,"null","1","null",2,1,"killing is wrong",2,NA
11,"cog_load","null","""","html-keyboard-response",26,177430,"0.0-3.0-1.0-3.0-0.0","cok0wbmz3x7g9n4",39,1,1524,8,29252,"Trolley","cog_load",1,7335,"null","null","1",6,1,0,0,1,0,0,1,0,2,2,1468,"null","null","1",3,3076,"null","null","1",6,"""","""","""","null","""",2021-11-01 21:14:18,"109.77.110.5","Mozilla/5.0 (X11; Ubuntu; Linux x86_64; rv:93.0) Gecko/20100101 Firefox/93.0",NA,"Firefox",93,"Ubuntu",NA,"3a61329f9539c1793efb98a4faa2e6fe",2,"null","1","null",2,1,"killing is wrong",2,NA
11,"cog_load","null","""","html-keyboard-response",27,178031,"0.0-3.0-1.0-3.0-1.0","cok0wbmz3x7g9n4",39,1,1524,8,29252,"Trolley","cog_load",1,7335,"null","null","1",6,1,0,0,1,0,0,1,0,2,2,1468,"null","null","1",3,3076,"null","null","1",6,"""","<div style=""font-size:60px;"">3</div>","""","null","""",2021-11-01 21:14:18,"109.77.110.5","Mozilla/5.0 (X11; Ubuntu; Linux x86_64; rv:93.0) Gecko/20100101 Firefox/93.0",NA,"Firefox",93,"Ubuntu",NA,"3a61329f9539c1793efb98a4faa2e6fe",2,"null","1","null",2,1,"killing is wrong",2,NA
11,"cog_load","null","""","html-keyboard-response",28,179034,"0.0-3.0-1.0-3.0-2.0","cok0wbmz3x7g9n4",39,1,1524,8,29252,"Trolley","cog_load",1,7335,"null","null","1",6,1,0,0,1,0,0,1,0,2,2,1468,"null","null","1",3,3076,"null","null","1",6,"""","<div style=""font-size:60px;"">2</div>","""","null","""",2021-11-01 21:14:18,"109.77.110.5","Mozilla/5.0 (X11; Ubuntu; Linux x86_64; rv:93.0) Gecko/20100101 Firefox/93.0",NA,"Firefox",93,"Ubuntu",NA,"3a61329f9539c1793efb98a4faa2e6fe",2,"null","1","null",2,1,"killing is wrong",2,NA
11,"cog_load","null","""","html-keyboard-response",29,180036,"0.0-3.0-1.0-3.0-3.0","cok0wbmz3x7g9n4",39,1,1524,8,29252,"Trolley","cog_load",1,7335,"null","null","1",6,1,0,0,1,0,0,1,0,2,2,1468,"null","null","1",3,3076,"null","null","1",6,"""","<div style=""font-size:60px;"">1</div>","""","null","""",2021-11-01 21:14:18,"109.77.110.5","Mozilla/5.0 (X11; Ubuntu; Linux x86_64; rv:93.0) Gecko/20100101 Firefox/93.0",NA,"Firefox",93,"Ubuntu",NA,"3a61329f9539c1793efb98a4faa2e6fe",2,"null","1","null",2,1,"killing is wrong",2,NA
11,"cog_load","null","""","html-slider-response",30,200454,"0.0-3.0-1.0-4.0-0.0","cok0wbmz3x7g9n4",39,1,1524,8,29252,"Trolley","cog_load",1,7335,"null","null","1",6,1,0,0,1,0,0,1,0,2,2,1468,"null","null","1",3,3076,"null","null","1",6,"""","<video autoplay muted><source src='video/num_scroll_test8.mp4' type='video/mp4'></video><br><p>How would you rate the actions of Paul?</p><p>(1 = Morally Wrong; and 7 = Morally Right)</p>","""","""","null",2021-11-01 21:14:18,"109.77.110.5","Mozilla/5.0 (X11; Ubuntu; Linux x86_64; rv:93.0) Gecko/20100101 Firefox/93.0",NA,"Firefox",93,"Ubuntu",NA,"3a61329f9539c1793efb98a4faa2e6fe",2,"null","1","null",2,1,"killing is wrong",2,NA
11,"cog_load","null","""","html-keyboard-response",31,200962,"0.0-3.0-1.0-4.0-1.0-0.0-0.0","cok0wbmz3x7g9n4",39,1,1524,8,29252,"Trolley","cog_load",1,7335,"null","null","1",6,1,0,0,1,0,0,1,0,2,2,1468,"null","null","1",3,3076,"null","null","1",6,"""","""","""","null","""",2021-11-01 21:14:18,"109.77.110.5","Mozilla/5.0 (X11; Ubuntu; Linux x86_64; rv:93.0) Gecko/20100101 Firefox/93.0",NA,"Firefox",93,"Ubuntu",NA,"3a61329f9539c1793efb98a4faa2e6fe",2,"null","1","null",2,1,"killing is wrong",2,NA
11,"cog_load","null","""","html-keyboard-response",32,202964,"0.0-3.0-1.0-4.0-1.0-0.0-1.0","cok0wbmz3x7g9n4",39,1,1524,8,29252,"Trolley","cog_load",1,7335,"null","null","1",6,1,0,0,1,0,0,1,0,2,2,1468,"null","null","1",3,3076,"null","null","1",6,"""","<p>Oops! Your time has run out. Please try again.</p>","""","null","""",2021-11-01 21:14:18,"109.77.110.5","Mozilla/5.0 (X11; Ubuntu; Linux x86_64; rv:93.0) Gecko/20100101 Firefox/93.0",NA,"Firefox",93,"Ubuntu",NA,"3a61329f9539c1793efb98a4faa2e6fe",2,"null","1","null",2,1,"killing is wrong",2,NA
11,"cog_load","null","""","html-keyboard-response",33,203465,"0.0-3.0-1.0-4.0-1.0-1.0-0.0","cok0wbmz3x7g9n4",39,1,1524,8,29252,"Trolley","cog_load",1,7335,"null","null","1",6,1,0,0,1,0,0,1,0,2,2,1468,"null","null","1",3,3076,"null","null","1",6,"""","""","""","null","""",2021-11-01 21:14:18,"109.77.110.5","Mozilla/5.0 (X11; Ubuntu; Linux x86_64; rv:93.0) Gecko/20100101 Firefox/93.0",NA,"Firefox",93,"Ubuntu",NA,"3a61329f9539c1793efb98a4faa2e6fe",2,"null","1","null",2,1,"killing is wrong",2,NA
11,"cog_load","null","""","html-keyboard-response",34,204068,"0.0-3.0-1.0-4.0-1.0-1.0-1.0","cok0wbmz3x7g9n4",39,1,1524,8,29252,"Trolley","cog_load",1,7335,"null","null","1",6,1,0,0,1,0,0,1,0,2,2,1468,"null","null","1",3,3076,"null","null","1",6,"""","<div style=""font-size:60px;"">3</div>","""","null","""",2021-11-01 21:14:18,"109.77.110.5","Mozilla/5.0 (X11; Ubuntu; Linux x86_64; rv:93.0) Gecko/20100101 Firefox/93.0",NA,"Firefox",93,"Ubuntu",NA,"3a61329f9539c1793efb98a4faa2e6fe",2,"null","1","null",2,1,"killing is wrong",2,NA
11,"cog_load","null","""","html-keyboard-response",35,205070,"0.0-3.0-1.0-4.0-1.0-1.0-2.0","cok0wbmz3x7g9n4",39,1,1524,8,29252,"Trolley","cog_load",1,7335,"null","null","1",6,1,0,0,1,0,0,1,0,2,2,1468,"null","null","1",3,3076,"null","null","1",6,"""","<div style=""font-size:60px;"">2</div>","""","null","""",2021-11-01 21:14:18,"109.77.110.5","Mozilla/5.0 (X11; Ubuntu; Linux x86_64; rv:93.0) Gecko/20100101 Firefox/93.0",NA,"Firefox",93,"Ubuntu",NA,"3a61329f9539c1793efb98a4faa2e6fe",2,"null","1","null",2,1,"killing is wrong",2,NA
11,"cog_load","null","""","html-keyboard-response",36,206072,"0.0-3.0-1.0-4.0-1.0-1.0-3.0","cok0wbmz3x7g9n4",39,1,1524,8,29252,"Trolley","cog_load",1,7335,"null","null","1",6,1,0,0,1,0,0,1,0,2,2,1468,"null","null","1",3,3076,"null","null","1",6,"""","<div style=""font-size:60px;"">1</div>","""","null","""",2021-11-01 21:14:18,"109.77.110.5","Mozilla/5.0 (X11; Ubuntu; Linux x86_64; rv:93.0) Gecko/20100101 Firefox/93.0",NA,"Firefox",93,"Ubuntu",NA,"3a61329f9539c1793efb98a4faa2e6fe",2,"null","1","null",2,1,"killing is wrong",2,NA
11,"cog_load","null","""","html-slider-response",37,226493,"0.0-3.0-1.0-4.0-1.0-2.0","cok0wbmz3x7g9n4",39,1,1524,8,29252,"Trolley","cog_load",1,7335,"null","null","1",6,1,0,0,1,0,0,1,0,2,2,1468,"null","null","1",3,3076,"null","null","1",6,"""","<video autoplay muted><source src='video/num_scroll_test8.mp4' type='video/mp4'></video><br><p>How would you rate the actions of Paul?</p><p>(1 = Morally Wrong; and 7 = Morally Right)</p>","""","""","null",2021-11-01 21:14:18,"109.77.110.5","Mozilla/5.0 (X11; Ubuntu; Linux x86_64; rv:93.0) Gecko/20100101 Firefox/93.0",NA,"Firefox",93,"Ubuntu",NA,"3a61329f9539c1793efb98a4faa2e6fe",2,"null","1","null",2,1,"killing is wrong",2,NA
11,"cog_load","null","""","html-keyboard-response",38,226995,"0.0-3.0-1.0-4.0-2.0-0.0-0.0","cok0wbmz3x7g9n4",39,1,1524,8,29252,"Trolley","cog_load",1,7335,"null","null","1",6,1,0,0,1,0,0,1,0,2,2,1468,"null","null","1",3,3076,"null","null","1",6,"""","""","""","null","""",2021-11-01 21:14:18,"109.77.110.5","Mozilla/5.0 (X11; Ubuntu; Linux x86_64; rv:93.0) Gecko/20100101 Firefox/93.0",NA,"Firefox",93,"Ubuntu",NA,"3a61329f9539c1793efb98a4faa2e6fe",2,"null","1","null",2,1,"killing is wrong",2,NA
11,"cog_load","null","""","html-keyboard-response",39,229006,"0.0-3.0-1.0-4.0-2.0-0.0-1.0","cok0wbmz3x7g9n4",39,1,1524,8,29252,"Trolley","cog_load",1,7335,"null","null","1",6,1,0,0,1,0,0,1,0,2,2,1468,"null","null","1",3,3076,"null","null","1",6,"""","<p>Oops! Your time has run out. Please try again.</p>","""","null","""",2021-11-01 21:14:18,"109.77.110.5","Mozilla/5.0 (X11; Ubuntu; Linux x86_64; rv:93.0) Gecko/20100101 Firefox/93.0",NA,"Firefox",93,"Ubuntu",NA,"3a61329f9539c1793efb98a4faa2e6fe",2,"null","1","null",2,1,"killing is wrong",2,NA
11,"cog_load","null","""","html-keyboard-response",40,229507,"0.0-3.0-1.0-4.0-2.0-1.0-0.0","cok0wbmz3x7g9n4",39,1,1524,8,29252,"Trolley","cog_load",1,7335,"null","null","1",6,1,0,0,1,0,0,1,0,2,2,1468,"null","null","1",3,3076,"null","null","1",6,"""","""","""","null","""",2021-11-01 21:14:18,"109.77.110.5","Mozilla/5.0 (X11; Ubuntu; Linux x86_64; rv:93.0) Gecko/20100101 Firefox/93.0",NA,"Firefox",93,"Ubuntu",NA,"3a61329f9539c1793efb98a4faa2e6fe",2,"null","1","null",2,1,"killing is wrong",2,NA
11,"cog_load","null","""","html-keyboard-response",41,230109,"0.0-3.0-1.0-4.0-2.0-1.0-1.0","cok0wbmz3x7g9n4",39,1,1524,8,29252,"Trolley","cog_load",1,7335,"null","null","1",6,1,0,0,1,0,0,1,0,2,2,1468,"null","null","1",3,3076,"null","null","1",6,"""","<div style=""font-size:60px;"">3</div>","""","null","""",2021-11-01 21:14:18,"109.77.110.5","Mozilla/5.0 (X11; Ubuntu; Linux x86_64; rv:93.0) Gecko/20100101 Firefox/93.0",NA,"Firefox",93,"Ubuntu",NA,"3a61329f9539c1793efb98a4faa2e6fe",2,"null","1","null",2,1,"killing is wrong",2,NA
11,"cog_load","null","""","html-keyboard-response",42,231112,"0.0-3.0-1.0-4.0-2.0-1.0-2.0","cok0wbmz3x7g9n4",39,1,1524,8,29252,"Trolley","cog_load",1,7335,"null","null","1",6,1,0,0,1,0,0,1,0,2,2,1468,"null","null","1",3,3076,"null","null","1",6,"""","<div style=""font-size:60px;"">2</div>","""","null","""",2021-11-01 21:14:18,"109.77.110.5","Mozilla/5.0 (X11; Ubuntu; Linux x86_64; rv:93.0) Gecko/20100101 Firefox/93.0",NA,"Firefox",93,"Ubuntu",NA,"3a61329f9539c1793efb98a4faa2e6fe",2,"null","1","null",2,1,"killing is wrong",2,NA
11,"cog_load","null","""","html-keyboard-response",43,232114,"0.0-3.0-1.0-4.0-2.0-1.0-3.0","cok0wbmz3x7g9n4",39,1,1524,8,29252,"Trolley","cog_load",1,7335,"null","null","1",6,1,0,0,1,0,0,1,0,2,2,1468,"null","null","1",3,3076,"null","null","1",6,"""","<div style=""font-size:60px;"">1</div>","""","null","""",2021-11-01 21:14:18,"109.77.110.5","Mozilla/5.0 (X11; Ubuntu; Linux x86_64; rv:93.0) Gecko/20100101 Firefox/93.0",NA,"Firefox",93,"Ubuntu",NA,"3a61329f9539c1793efb98a4faa2e6fe",2,"null","1","null",2,1,"killing is wrong",2,NA
11,"cog_load","7335","""","html-slider-response",44,239858,"0.0-3.0-1.0-4.0-2.0-2.0","cok0wbmz3x7g9n4",39,1,1524,8,29252,"Trolley","cog_load",1,7335,"null","null","1",6,1,0,0,1,0,0,1,0,2,2,1468,"null","null","1",3,3076,"null","null","1",6,"""","<video autoplay muted><source src='video/num_scroll_test8.mp4' type='video/mp4'></video><br><p>How would you rate the actions of Paul?</p><p>(1 = Morally Wrong; and 7 = Morally Right)</p>","""","""","1",2021-11-01 21:14:18,"109.77.110.5","Mozilla/5.0 (X11; Ubuntu; Linux x86_64; rv:93.0) Gecko/20100101 Firefox/93.0",NA,"Firefox",93,"Ubuntu",NA,"3a61329f9539c1793efb98a4faa2e6fe",2,"null","1","null",2,1,"killing is wrong",2,NA
11,"cog_load","4662","""","survey-text",45,244536,"0.0-3.0-1.0-5.0","cok0wbmz3x7g9n4",39,1,1524,8,29252,"Trolley","cog_load",1,7335,"null","null","1",6,1,0,0,1,0,0,1,0,2,2,1468,"null","null","1",3,3076,"null","null","1",6,"{""Q0"":""2""}","""","""","""","""",2021-11-01 21:14:18,"109.77.110.5","Mozilla/5.0 (X11; Ubuntu; Linux x86_64; rv:93.0) Gecko/20100101 Firefox/93.0",NA,"Firefox",93,"Ubuntu",NA,"3a61329f9539c1793efb98a4faa2e6fe",2,"null","1","null",2,1,"killing is wrong",2,NA
11,"cog_load","24014","""","html-slider-response",46,268560,"0.0-3.0-1.0-6.0","cok0wbmz3x7g9n4",39,1,1524,8,29252,"Trolley","cog_load",1,7335,"null","null","1",6,1,0,0,1,0,0,1,0,2,2,1468,"null","null","1",3,3076,"null","null","1",6,"""","<p>How confident are you about your judgement?</p><p>(1 = Not at all Confident; 7 = Extremely Confident)</p>","""","""","6",2021-11-01 21:14:18,"109.77.110.5","Mozilla/5.0 (X11; Ubuntu; Linux x86_64; rv:93.0) Gecko/20100101 Firefox/93.0",NA,"Firefox",93,"Ubuntu",NA,"3a61329f9539c1793efb98a4faa2e6fe",2,"null","1","null",2,1,"killing is wrong",2,NA
11,"cog_load","2086","""","html-button-response",47,270673,"0.0-3.0-1.0-7.0-0.0","cok0wbmz3x7g9n4",39,1,1524,8,29252,"Trolley","cog_load",1,7335,"null","null","1",6,1,0,0,1,0,0,1,0,2,2,1468,"null","null","1",3,3076,"null","null","1",6,"""","<p>Do you accept that five people would have died if Paul didn't push the man?</p>","1","""","""",2021-11-01 21:14:18,"109.77.110.5","Mozilla/5.0 (X11; Ubuntu; Linux x86_64; rv:93.0) Gecko/20100101 Firefox/93.0",NA,"Firefox",93,"Ubuntu",NA,"3a61329f9539c1793efb98a4faa2e6fe",2,"null","1","null",2,1,"killing is wrong",2,NA
11,"cog_load","1028","""","html-button-response",48,271704,"0.0-3.0-1.0-7.0-1.0","cok0wbmz3x7g9n4",39,1,1524,8,29252,"Trolley","cog_load",1,7335,"null","null","1",6,1,0,0,1,0,0,1,0,2,2,1468,"null","null","1",3,3076,"null","null","1",6,"""","<p>Do you think it's wrong?</p>","0","""","""",2021-11-01 21:14:18,"109.77.110.5","Mozilla/5.0 (X11; Ubuntu; Linux x86_64; rv:93.0) Gecko/20100101 Firefox/93.0",NA,"Firefox",93,"Ubuntu",NA,"3a61329f9539c1793efb98a4faa2e6fe",2,"null","1","null",2,1,"killing is wrong",2,NA
11,"cog_load","676","""","html-button-response",49,272383,"0.0-3.0-1.0-7.0-2.0","cok0wbmz3x7g9n4",39,1,1524,8,29252,"Trolley","cog_load",1,7335,"null","null","1",6,1,0,0,1,0,0,1,0,2,2,1468,"null","null","1",3,3076,"null","null","1",6,"""","<p>Do you have a reason for your judgement?</p>","0","""","""",2021-11-01 21:14:18,"109.77.110.5","Mozilla/5.0 (X11; Ubuntu; Linux x86_64; rv:93.0) Gecko/20100101 Firefox/93.0",NA,"Firefox",93,"Ubuntu",NA,"3a61329f9539c1793efb98a4faa2e6fe",2,"null","1","null",2,1,"killing is wrong",2,NA
11,"cog_load","11424","""","html-button-response",50,283811,"0.0-3.0-1.0-7.0-3.0","cok0wbmz3x7g9n4",39,1,1524,8,29252,"Trolley","cog_load",1,7335,"null","null","1",6,1,0,0,1,0,0,1,0,2,2,1468,"null","null","1",3,3076,"null","null","1",6,"""","<p>And this man is the only way available to stop the trolley? (Paul does not weigh enough)</p>","1","""","""",2021-11-01 21:14:18,"109.77.110.5","Mozilla/5.0 (X11; Ubuntu; Linux x86_64; rv:93.0) Gecko/20100101 Firefox/93.0",NA,"Firefox",93,"Ubuntu",NA,"3a61329f9539c1793efb98a4faa2e6fe",2,"null","1","null",2,1,"killing is wrong",2,NA
11,"cog_load","770","""","html-button-response",51,284594,"0.0-3.0-1.0-7.0-4.0","cok0wbmz3x7g9n4",39,1,1524,8,29252,"Trolley","cog_load",1,7335,"null","null","1",6,1,0,0,1,0,0,1,0,2,2,1468,"null","null","1",3,3076,"null","null","1",6,"""","<p>Do you think it's wrong?</p>","0","""","""",2021-11-01 21:14:18,"109.77.110.5","Mozilla/5.0 (X11; Ubuntu; Linux x86_64; rv:93.0) Gecko/20100101 Firefox/93.0",NA,"Firefox",93,"Ubuntu",NA,"3a61329f9539c1793efb98a4faa2e6fe",2,"null","1","null",2,1,"killing is wrong",2,NA
11,"cog_load","2564","""","html-button-response",52,287162,"0.0-3.0-1.0-7.0-5.0","cok0wbmz3x7g9n4",39,1,1524,8,29252,"Trolley","cog_load",1,7335,"null","null","1",6,1,0,0,1,0,0,1,0,2,2,1468,"null","null","1",3,3076,"null","null","1",6,"""","<p>Do you have a reason for your judgement?</p>","0","""","""",2021-11-01 21:14:18,"109.77.110.5","Mozilla/5.0 (X11; Ubuntu; Linux x86_64; rv:93.0) Gecko/20100101 Firefox/93.0",NA,"Firefox",93,"Ubuntu",NA,"3a61329f9539c1793efb98a4faa2e6fe",2,"null","1","null",2,1,"killing is wrong",2,NA
11,"cog_load","699","""","html-button-response",53,287865,"0.0-3.0-1.0-7.0-6.0","cok0wbmz3x7g9n4",39,1,1524,8,29252,"Trolley","cog_load",1,7335,"null","null","1",6,1,0,0,1,0,0,1,0,2,2,1468,"null","null","1",3,3076,"null","null","1",6,"""","<p>Do you agree that in stopping the trolley Paul saved the lives of five people?</p>","1","""","""",2021-11-01 21:14:18,"109.77.110.5","Mozilla/5.0 (X11; Ubuntu; Linux x86_64; rv:93.0) Gecko/20100101 Firefox/93.0",NA,"Firefox",93,"Ubuntu",NA,"3a61329f9539c1793efb98a4faa2e6fe",2,"null","1","null",2,1,"killing is wrong",2,NA
11,"cog_load","776","""","html-button-response",54,288644,"0.0-3.0-1.0-7.0-7.0","cok0wbmz3x7g9n4",39,1,1524,8,29252,"Trolley","cog_load",1,7335,"null","null","1",6,1,0,0,1,0,0,1,0,2,2,1468,"null","null","1",3,3076,"null","null","1",6,"""","<p>Do you think it's wrong?</p>","0","""","""",2021-11-01 21:14:18,"109.77.110.5","Mozilla/5.0 (X11; Ubuntu; Linux x86_64; rv:93.0) Gecko/20100101 Firefox/93.0",NA,"Firefox",93,"Ubuntu",NA,"3a61329f9539c1793efb98a4faa2e6fe",2,"null","1","null",2,1,"killing is wrong",2,NA
11,"cog_load","1178","""","html-button-response",55,289824,"0.0-3.0-1.0-7.0-8.0","cok0wbmz3x7g9n4",39,1,1524,8,29252,"Trolley","cog_load",1,7335,"null","null","1",6,1,0,0,1,0,0,1,0,2,2,1468,"null","null","1",3,3076,"null","null","1",6,"""","<p>Do you have a reason for your judgement?</p>","2","""","""",2021-11-01 21:14:18,"109.77.110.5","Mozilla/5.0 (X11; Ubuntu; Linux x86_64; rv:93.0) Gecko/20100101 Firefox/93.0",NA,"Firefox",93,"Ubuntu",NA,"3a61329f9539c1793efb98a4faa2e6fe",2,"null","1","null",2,1,"killing is wrong",2,NA
11,"cog_load","3788","""","html-button-response",56,293627,"0.0-3.0-1.0-8.0","cok0wbmz3x7g9n4",39,1,1524,8,29252,"Trolley","cog_load",1,7335,"null","null","1",6,1,0,0,1,0,0,1,0,2,2,1468,"null","null","1",3,3076,"null","null","1",6,"""","<p style=""text-align: left"">The next page contains a <b>question</b> and an <b>attention task</b> (<i>number scroll</i> video)</p><br><p style=""text-align: left; font-size:20px;"">While answering the question, please count how many times you see the number below:<br></p><p style=""font-size:40px;""><b>three: 3</b></p><p>(The next page will expire within 20 seconds)</br>(You will have 3 attempts at this question)</p>","0","""","""",2021-11-01 21:14:18,"109.77.110.5","Mozilla/5.0 (X11; Ubuntu; Linux x86_64; rv:93.0) Gecko/20100101 Firefox/93.0",NA,"Firefox",93,"Ubuntu",NA,"3a61329f9539c1793efb98a4faa2e6fe",2,"null","1","null",2,1,"killing is wrong",2,NA
11,"cog_load","null","""","html-keyboard-response",57,294131,"0.0-3.0-1.0-9.0-0.0","cok0wbmz3x7g9n4",39,1,1524,8,29252,"Trolley","cog_load",1,7335,"null","null","1",6,1,0,0,1,0,0,1,0,2,2,1468,"null","null","1",3,3076,"null","null","1",6,"""","""","""","null","""",2021-11-01 21:14:18,"109.77.110.5","Mozilla/5.0 (X11; Ubuntu; Linux x86_64; rv:93.0) Gecko/20100101 Firefox/93.0",NA,"Firefox",93,"Ubuntu",NA,"3a61329f9539c1793efb98a4faa2e6fe",2,"null","1","null",2,1,"killing is wrong",2,NA
11,"cog_load","null","""","html-keyboard-response",58,294732,"0.0-3.0-1.0-9.0-1.0","cok0wbmz3x7g9n4",39,1,1524,8,29252,"Trolley","cog_load",1,7335,"null","null","1",6,1,0,0,1,0,0,1,0,2,2,1468,"null","null","1",3,3076,"null","null","1",6,"""","<div style=""font-size:60px;"">3</div>","""","null","""",2021-11-01 21:14:18,"109.77.110.5","Mozilla/5.0 (X11; Ubuntu; Linux x86_64; rv:93.0) Gecko/20100101 Firefox/93.0",NA,"Firefox",93,"Ubuntu",NA,"3a61329f9539c1793efb98a4faa2e6fe",2,"null","1","null",2,1,"killing is wrong",2,NA
11,"cog_load","null","""","html-keyboard-response",59,295734,"0.0-3.0-1.0-9.0-2.0","cok0wbmz3x7g9n4",39,1,1524,8,29252,"Trolley","cog_load",1,7335,"null","null","1",6,1,0,0,1,0,0,1,0,2,2,1468,"null","null","1",3,3076,"null","null","1",6,"""","<div style=""font-size:60px;"">2</div>","""","null","""",2021-11-01 21:14:18,"109.77.110.5","Mozilla/5.0 (X11; Ubuntu; Linux x86_64; rv:93.0) Gecko/20100101 Firefox/93.0",NA,"Firefox",93,"Ubuntu",NA,"3a61329f9539c1793efb98a4faa2e6fe",2,"null","1","null",2,1,"killing is wrong",2,NA
11,"cog_load","null","""","html-keyboard-response",60,296747,"0.0-3.0-1.0-9.0-3.0","cok0wbmz3x7g9n4",39,1,1524,8,29252,"Trolley","cog_load",1,7335,"null","null","1",6,1,0,0,1,0,0,1,0,2,2,1468,"null","null","1",3,3076,"null","null","1",6,"""","<div style=""font-size:60px;"">1</div>","""","null","""",2021-11-01 21:14:18,"109.77.110.5","Mozilla/5.0 (X11; Ubuntu; Linux x86_64; rv:93.0) Gecko/20100101 Firefox/93.0",NA,"Firefox",93,"Ubuntu",NA,"3a61329f9539c1793efb98a4faa2e6fe",2,"null","1","null",2,1,"killing is wrong",2,NA
11,"cog_load","null","""","html-button-response",61,317156,"0.0-3.0-1.0-10.0-0.0","cok0wbmz3x7g9n4",39,1,1524,8,29252,"Trolley","cog_load",1,7335,"null","null","1",6,1,0,0,1,0,0,1,0,2,2,1468,"null","null","1",3,3076,"null","null","1",6,"""","<video autoplay muted><source src='video/num_scroll_test10.mp4' type='video/mp4'></video><br><p style='font-size:20px;'>Paul's actions saved the lives of five people!</p><p style='font-size:20px;'>How can saving lives be wrong? </p>","null","""","""",2021-11-01 21:14:18,"109.77.110.5","Mozilla/5.0 (X11; Ubuntu; Linux x86_64; rv:93.0) Gecko/20100101 Firefox/93.0",NA,"Firefox",93,"Ubuntu",NA,"3a61329f9539c1793efb98a4faa2e6fe",2,"null","1","null",2,1,"killing is wrong",2,NA
11,"cog_load","null","""","html-keyboard-response",62,317694,"0.0-3.0-1.0-10.0-1.0-0.0-0.0","cok0wbmz3x7g9n4",39,1,1524,8,29252,"Trolley","cog_load",1,7335,"null","null","1",6,1,0,0,1,0,0,1,0,2,2,1468,"null","null","1",3,3076,"null","null","1",6,"""","""","""","null","""",2021-11-01 21:14:18,"109.77.110.5","Mozilla/5.0 (X11; Ubuntu; Linux x86_64; rv:93.0) Gecko/20100101 Firefox/93.0",NA,"Firefox",93,"Ubuntu",NA,"3a61329f9539c1793efb98a4faa2e6fe",2,"null","1","null",2,1,"killing is wrong",2,NA
11,"cog_load","null","""","html-keyboard-response",63,319698,"0.0-3.0-1.0-10.0-1.0-0.0-1.0","cok0wbmz3x7g9n4",39,1,1524,8,29252,"Trolley","cog_load",1,7335,"null","null","1",6,1,0,0,1,0,0,1,0,2,2,1468,"null","null","1",3,3076,"null","null","1",6,"""","<p>Oops! Your time has run out. Please try again.</p>","""","null","""",2021-11-01 21:14:18,"109.77.110.5","Mozilla/5.0 (X11; Ubuntu; Linux x86_64; rv:93.0) Gecko/20100101 Firefox/93.0",NA,"Firefox",93,"Ubuntu",NA,"3a61329f9539c1793efb98a4faa2e6fe",2,"null","1","null",2,1,"killing is wrong",2,NA
11,"cog_load","null","""","html-keyboard-response",64,320200,"0.0-3.0-1.0-10.0-1.0-1.0-0.0","cok0wbmz3x7g9n4",39,1,1524,8,29252,"Trolley","cog_load",1,7335,"null","null","1",6,1,0,0,1,0,0,1,0,2,2,1468,"null","null","1",3,3076,"null","null","1",6,"""","""","""","null","""",2021-11-01 21:14:18,"109.77.110.5","Mozilla/5.0 (X11; Ubuntu; Linux x86_64; rv:93.0) Gecko/20100101 Firefox/93.0",NA,"Firefox",93,"Ubuntu",NA,"3a61329f9539c1793efb98a4faa2e6fe",2,"null","1","null",2,1,"killing is wrong",2,NA
11,"cog_load","null","""","html-keyboard-response",65,320801,"0.0-3.0-1.0-10.0-1.0-1.0-1.0","cok0wbmz3x7g9n4",39,1,1524,8,29252,"Trolley","cog_load",1,7335,"null","null","1",6,1,0,0,1,0,0,1,0,2,2,1468,"null","null","1",3,3076,"null","null","1",6,"""","<div style=""font-size:60px;"">3</div>","""","null","""",2021-11-01 21:14:18,"109.77.110.5","Mozilla/5.0 (X11; Ubuntu; Linux x86_64; rv:93.0) Gecko/20100101 Firefox/93.0",NA,"Firefox",93,"Ubuntu",NA,"3a61329f9539c1793efb98a4faa2e6fe",2,"null","1","null",2,1,"killing is wrong",2,NA
11,"cog_load","null","""","html-keyboard-response",66,321804,"0.0-3.0-1.0-10.0-1.0-1.0-2.0","cok0wbmz3x7g9n4",39,1,1524,8,29252,"Trolley","cog_load",1,7335,"null","null","1",6,1,0,0,1,0,0,1,0,2,2,1468,"null","null","1",3,3076,"null","null","1",6,"""","<div style=""font-size:60px;"">2</div>","""","null","""",2021-11-01 21:14:18,"109.77.110.5","Mozilla/5.0 (X11; Ubuntu; Linux x86_64; rv:93.0) Gecko/20100101 Firefox/93.0",NA,"Firefox",93,"Ubuntu",NA,"3a61329f9539c1793efb98a4faa2e6fe",2,"null","1","null",2,1,"killing is wrong",2,NA
11,"cog_load","null","""","html-keyboard-response",67,322806,"0.0-3.0-1.0-10.0-1.0-1.0-3.0","cok0wbmz3x7g9n4",39,1,1524,8,29252,"Trolley","cog_load",1,7335,"null","null","1",6,1,0,0,1,0,0,1,0,2,2,1468,"null","null","1",3,3076,"null","null","1",6,"""","<div style=""font-size:60px;"">1</div>","""","null","""",2021-11-01 21:14:18,"109.77.110.5","Mozilla/5.0 (X11; Ubuntu; Linux x86_64; rv:93.0) Gecko/20100101 Firefox/93.0",NA,"Firefox",93,"Ubuntu",NA,"3a61329f9539c1793efb98a4faa2e6fe",2,"null","1","null",2,1,"killing is wrong",2,NA
11,"cog_load","null","""","html-button-response",68,343216,"0.0-3.0-1.0-10.0-1.0-2.0","cok0wbmz3x7g9n4",39,1,1524,8,29252,"Trolley","cog_load",1,7335,"null","null","1",6,1,0,0,1,0,0,1,0,2,2,1468,"null","null","1",3,3076,"null","null","1",6,"""","<video autoplay muted><source src='video/num_scroll_test10.mp4' type='video/mp4'></video><br><p style='font-size:20px;'>Paul's actions saved the lives of five people!</p><p style='font-size:20px;'>How can saving lives be wrong? </p>","null","""","""",2021-11-01 21:14:18,"109.77.110.5","Mozilla/5.0 (X11; Ubuntu; Linux x86_64; rv:93.0) Gecko/20100101 Firefox/93.0",NA,"Firefox",93,"Ubuntu",NA,"3a61329f9539c1793efb98a4faa2e6fe",2,"null","1","null",2,1,"killing is wrong",2,NA
11,"cog_load","null","""","html-keyboard-response",69,343719,"0.0-3.0-1.0-10.0-2.0-0.0-0.0","cok0wbmz3x7g9n4",39,1,1524,8,29252,"Trolley","cog_load",1,7335,"null","null","1",6,1,0,0,1,0,0,1,0,2,2,1468,"null","null","1",3,3076,"null","null","1",6,"""","""","""","null","""",2021-11-01 21:14:18,"109.77.110.5","Mozilla/5.0 (X11; Ubuntu; Linux x86_64; rv:93.0) Gecko/20100101 Firefox/93.0",NA,"Firefox",93,"Ubuntu",NA,"3a61329f9539c1793efb98a4faa2e6fe",2,"null","1","null",2,1,"killing is wrong",2,NA
11,"cog_load","null","""","html-keyboard-response",70,345733,"0.0-3.0-1.0-10.0-2.0-0.0-1.0","cok0wbmz3x7g9n4",39,1,1524,8,29252,"Trolley","cog_load",1,7335,"null","null","1",6,1,0,0,1,0,0,1,0,2,2,1468,"null","null","1",3,3076,"null","null","1",6,"""","<p>Oops! Your time has run out. Please try again.</p>","""","null","""",2021-11-01 21:14:18,"109.77.110.5","Mozilla/5.0 (X11; Ubuntu; Linux x86_64; rv:93.0) Gecko/20100101 Firefox/93.0",NA,"Firefox",93,"Ubuntu",NA,"3a61329f9539c1793efb98a4faa2e6fe",2,"null","1","null",2,1,"killing is wrong",2,NA
11,"cog_load","null","""","html-keyboard-response",71,346237,"0.0-3.0-1.0-10.0-2.0-1.0-0.0","cok0wbmz3x7g9n4",39,1,1524,8,29252,"Trolley","cog_load",1,7335,"null","null","1",6,1,0,0,1,0,0,1,0,2,2,1468,"null","null","1",3,3076,"null","null","1",6,"""","""","""","null","""",2021-11-01 21:14:18,"109.77.110.5","Mozilla/5.0 (X11; Ubuntu; Linux x86_64; rv:93.0) Gecko/20100101 Firefox/93.0",NA,"Firefox",93,"Ubuntu",NA,"3a61329f9539c1793efb98a4faa2e6fe",2,"null","1","null",2,1,"killing is wrong",2,NA
11,"cog_load","null","""","html-keyboard-response",72,346841,"0.0-3.0-1.0-10.0-2.0-1.0-1.0","cok0wbmz3x7g9n4",39,1,1524,8,29252,"Trolley","cog_load",1,7335,"null","null","1",6,1,0,0,1,0,0,1,0,2,2,1468,"null","null","1",3,3076,"null","null","1",6,"""","<div style=""font-size:60px;"">3</div>","""","null","""",2021-11-01 21:14:18,"109.77.110.5","Mozilla/5.0 (X11; Ubuntu; Linux x86_64; rv:93.0) Gecko/20100101 Firefox/93.0",NA,"Firefox",93,"Ubuntu",NA,"3a61329f9539c1793efb98a4faa2e6fe",2,"null","1","null",2,1,"killing is wrong",2,NA
11,"cog_load","null","""","html-keyboard-response",73,347844,"0.0-3.0-1.0-10.0-2.0-1.0-2.0","cok0wbmz3x7g9n4",39,1,1524,8,29252,"Trolley","cog_load",1,7335,"null","null","1",6,1,0,0,1,0,0,1,0,2,2,1468,"null","null","1",3,3076,"null","null","1",6,"""","<div style=""font-size:60px;"">2</div>","""","null","""",2021-11-01 21:14:18,"109.77.110.5","Mozilla/5.0 (X11; Ubuntu; Linux x86_64; rv:93.0) Gecko/20100101 Firefox/93.0",NA,"Firefox",93,"Ubuntu",NA,"3a61329f9539c1793efb98a4faa2e6fe",2,"null","1","null",2,1,"killing is wrong",2,NA
11,"cog_load","null","""","html-keyboard-response",74,348846,"0.0-3.0-1.0-10.0-2.0-1.0-3.0","cok0wbmz3x7g9n4",39,1,1524,8,29252,"Trolley","cog_load",1,7335,"null","null","1",6,1,0,0,1,0,0,1,0,2,2,1468,"null","null","1",3,3076,"null","null","1",6,"""","<div style=""font-size:60px;"">1</div>","""","null","""",2021-11-01 21:14:18,"109.77.110.5","Mozilla/5.0 (X11; Ubuntu; Linux x86_64; rv:93.0) Gecko/20100101 Firefox/93.0",NA,"Firefox",93,"Ubuntu",NA,"3a61329f9539c1793efb98a4faa2e6fe",2,"null","1","null",2,1,"killing is wrong",2,NA
11,"cog_load","1468","""","html-button-response",75,350723,"0.0-3.0-1.0-10.0-2.0-2.0","cok0wbmz3x7g9n4",39,1,1524,8,29252,"Trolley","cog_load",1,7335,"null","null","1",6,1,0,0,1,0,0,1,0,2,2,1468,"null","null","1",3,3076,"null","null","1",6,"""","<video autoplay muted><source src='video/num_scroll_test10.mp4' type='video/mp4'></video><br><p style='font-size:20px;'>Paul's actions saved the lives of five people!</p><p style='font-size:20px;'>How can saving lives be wrong? </p>","2","""","""",2021-11-01 21:14:18,"109.77.110.5","Mozilla/5.0 (X11; Ubuntu; Linux x86_64; rv:93.0) Gecko/20100101 Firefox/93.0",NA,"Firefox",93,"Ubuntu",NA,"3a61329f9539c1793efb98a4faa2e6fe",2,"null","1","null",2,1,"killing is wrong",2,NA
11,"cog_load","7146","""","survey-text",76,357913,"0.0-3.0-1.0-10.0-3.0-0.0","cok0wbmz3x7g9n4",39,1,1524,8,29252,"Trolley","cog_load",1,7335,"null","null","1",6,1,0,0,1,0,0,1,0,2,2,1468,"null","null","1",3,3076,"null","null","1",6,"{""Q0"":""killing is wrong""}","""","""","""","""",2021-11-01 21:14:18,"109.77.110.5","Mozilla/5.0 (X11; Ubuntu; Linux x86_64; rv:93.0) Gecko/20100101 Firefox/93.0",NA,"Firefox",93,"Ubuntu",NA,"3a61329f9539c1793efb98a4faa2e6fe",2,"null","1","null",2,1,"killing is wrong",2,NA
11,"cog_load","4130","""","survey-text",77,362054,"0.0-3.0-1.0-11.0","cok0wbmz3x7g9n4",39,1,1524,8,29252,"Trolley","cog_load",1,7335,"null","null","1",6,1,0,0,1,0,0,1,0,2,2,1468,"null","null","1",3,3076,"null","null","1",6,"{""Q0"":""1""}","""","""","""","""",2021-11-01 21:14:18,"109.77.110.5","Mozilla/5.0 (X11; Ubuntu; Linux x86_64; rv:93.0) Gecko/20100101 Firefox/93.0",NA,"Firefox",93,"Ubuntu",NA,"3a61329f9539c1793efb98a4faa2e6fe",2,"null","1","null",2,1,"killing is wrong",2,NA
11,"cog_load","1873","""","html-button-response",78,363952,"0.0-3.0-1.0-12.0","cok0wbmz3x7g9n4",39,1,1524,8,29252,"Trolley","cog_load",1,7335,"null","null","1",6,1,0,0,1,0,0,1,0,2,2,1468,"null","null","1",3,3076,"null","null","1",6,"""","<p style=""text-align: left"">The next page contains a <b>question</b> and an <b>attention task</b> (<i>number scroll</i> video)</p><br><p style=""text-align: left; font-size:20px;"">While answering the question, please count how many times you see the number below:<br></p><p style=""font-size:40px;""><b>five: 5</b></p><p>(The next page will expire within 20 seconds)</br>(You will have 3 attempts at this question)</p>","0","""","""",2021-11-01 21:14:18,"109.77.110.5","Mozilla/5.0 (X11; Ubuntu; Linux x86_64; rv:93.0) Gecko/20100101 Firefox/93.0",NA,"Firefox",93,"Ubuntu",NA,"3a61329f9539c1793efb98a4faa2e6fe",2,"null","1","null",2,1,"killing is wrong",2,NA
11,"cog_load","null","""","html-keyboard-response",79,364455,"0.0-3.0-1.0-13.0-0.0","cok0wbmz3x7g9n4",39,1,1524,8,29252,"Trolley","cog_load",1,7335,"null","null","1",6,1,0,0,1,0,0,1,0,2,2,1468,"null","null","1",3,3076,"null","null","1",6,"""","""","""","null","""",2021-11-01 21:14:18,"109.77.110.5","Mozilla/5.0 (X11; Ubuntu; Linux x86_64; rv:93.0) Gecko/20100101 Firefox/93.0",NA,"Firefox",93,"Ubuntu",NA,"3a61329f9539c1793efb98a4faa2e6fe",2,"null","1","null",2,1,"killing is wrong",2,NA
11,"cog_load","null","""","html-keyboard-response",80,365057,"0.0-3.0-1.0-13.0-1.0","cok0wbmz3x7g9n4",39,1,1524,8,29252,"Trolley","cog_load",1,7335,"null","null","1",6,1,0,0,1,0,0,1,0,2,2,1468,"null","null","1",3,3076,"null","null","1",6,"""","<div style=""font-size:60px;"">3</div>","""","null","""",2021-11-01 21:14:18,"109.77.110.5","Mozilla/5.0 (X11; Ubuntu; Linux x86_64; rv:93.0) Gecko/20100101 Firefox/93.0",NA,"Firefox",93,"Ubuntu",NA,"3a61329f9539c1793efb98a4faa2e6fe",2,"null","1","null",2,1,"killing is wrong",2,NA
11,"cog_load","null","""","html-keyboard-response",81,366060,"0.0-3.0-1.0-13.0-2.0","cok0wbmz3x7g9n4",39,1,1524,8,29252,"Trolley","cog_load",1,7335,"null","null","1",6,1,0,0,1,0,0,1,0,2,2,1468,"null","null","1",3,3076,"null","null","1",6,"""","<div style=""font-size:60px;"">2</div>","""","null","""",2021-11-01 21:14:18,"109.77.110.5","Mozilla/5.0 (X11; Ubuntu; Linux x86_64; rv:93.0) Gecko/20100101 Firefox/93.0",NA,"Firefox",93,"Ubuntu",NA,"3a61329f9539c1793efb98a4faa2e6fe",2,"null","1","null",2,1,"killing is wrong",2,NA
11,"cog_load","null","""","html-keyboard-response",82,367062,"0.0-3.0-1.0-13.0-3.0","cok0wbmz3x7g9n4",39,1,1524,8,29252,"Trolley","cog_load",1,7335,"null","null","1",6,1,0,0,1,0,0,1,0,2,2,1468,"null","null","1",3,3076,"null","null","1",6,"""","<div style=""font-size:60px;"">1</div>","""","null","""",2021-11-01 21:14:18,"109.77.110.5","Mozilla/5.0 (X11; Ubuntu; Linux x86_64; rv:93.0) Gecko/20100101 Firefox/93.0",NA,"Firefox",93,"Ubuntu",NA,"3a61329f9539c1793efb98a4faa2e6fe",2,"null","1","null",2,1,"killing is wrong",2,NA
11,"cog_load","null","""","html-slider-response",83,387470,"0.0-3.0-1.0-14.0-0.0","cok0wbmz3x7g9n4",39,1,1524,8,29252,"Trolley","cog_load",1,7335,"null","null","1",6,1,0,0,1,0,0,1,0,2,2,1468,"null","null","1",3,3076,"null","null","1",6,"""","<video autoplay muted><source src='video/num_scroll_test9.mp4' type='video/mp4'></video><br><p>How would you rate the actions of Paul?</p><p>(1 = Morally Wrong; and 7 = Morally Right)</p>","""","""","null",2021-11-01 21:14:18,"109.77.110.5","Mozilla/5.0 (X11; Ubuntu; Linux x86_64; rv:93.0) Gecko/20100101 Firefox/93.0",NA,"Firefox",93,"Ubuntu",NA,"3a61329f9539c1793efb98a4faa2e6fe",2,"null","1","null",2,1,"killing is wrong",2,NA
11,"cog_load","null","""","html-keyboard-response",84,387991,"0.0-3.0-1.0-14.0-1.0-0.0-0.0","cok0wbmz3x7g9n4",39,1,1524,8,29252,"Trolley","cog_load",1,7335,"null","null","1",6,1,0,0,1,0,0,1,0,2,2,1468,"null","null","1",3,3076,"null","null","1",6,"""","""","""","null","""",2021-11-01 21:14:18,"109.77.110.5","Mozilla/5.0 (X11; Ubuntu; Linux x86_64; rv:93.0) Gecko/20100101 Firefox/93.0",NA,"Firefox",93,"Ubuntu",NA,"3a61329f9539c1793efb98a4faa2e6fe",2,"null","1","null",2,1,"killing is wrong",2,NA
11,"cog_load","null","""","html-keyboard-response",85,389994,"0.0-3.0-1.0-14.0-1.0-0.0-1.0","cok0wbmz3x7g9n4",39,1,1524,8,29252,"Trolley","cog_load",1,7335,"null","null","1",6,1,0,0,1,0,0,1,0,2,2,1468,"null","null","1",3,3076,"null","null","1",6,"""","<p>Oops! Your time has run out. Please try again.</p>","""","null","""",2021-11-01 21:14:18,"109.77.110.5","Mozilla/5.0 (X11; Ubuntu; Linux x86_64; rv:93.0) Gecko/20100101 Firefox/93.0",NA,"Firefox",93,"Ubuntu",NA,"3a61329f9539c1793efb98a4faa2e6fe",2,"null","1","null",2,1,"killing is wrong",2,NA
11,"cog_load","null","""","html-keyboard-response",86,390495,"0.0-3.0-1.0-14.0-1.0-1.0-0.0","cok0wbmz3x7g9n4",39,1,1524,8,29252,"Trolley","cog_load",1,7335,"null","null","1",6,1,0,0,1,0,0,1,0,2,2,1468,"null","null","1",3,3076,"null","null","1",6,"""","""","""","null","""",2021-11-01 21:14:18,"109.77.110.5","Mozilla/5.0 (X11; Ubuntu; Linux x86_64; rv:93.0) Gecko/20100101 Firefox/93.0",NA,"Firefox",93,"Ubuntu",NA,"3a61329f9539c1793efb98a4faa2e6fe",2,"null","1","null",2,1,"killing is wrong",2,NA
11,"cog_load","null","""","html-keyboard-response",87,391097,"0.0-3.0-1.0-14.0-1.0-1.0-1.0","cok0wbmz3x7g9n4",39,1,1524,8,29252,"Trolley","cog_load",1,7335,"null","null","1",6,1,0,0,1,0,0,1,0,2,2,1468,"null","null","1",3,3076,"null","null","1",6,"""","<div style=""font-size:60px;"">3</div>","""","null","""",2021-11-01 21:14:18,"109.77.110.5","Mozilla/5.0 (X11; Ubuntu; Linux x86_64; rv:93.0) Gecko/20100101 Firefox/93.0",NA,"Firefox",93,"Ubuntu",NA,"3a61329f9539c1793efb98a4faa2e6fe",2,"null","1","null",2,1,"killing is wrong",2,NA
11,"cog_load","null","""","html-keyboard-response",88,392099,"0.0-3.0-1.0-14.0-1.0-1.0-2.0","cok0wbmz3x7g9n4",39,1,1524,8,29252,"Trolley","cog_load",1,7335,"null","null","1",6,1,0,0,1,0,0,1,0,2,2,1468,"null","null","1",3,3076,"null","null","1",6,"""","<div style=""font-size:60px;"">2</div>","""","null","""",2021-11-01 21:14:18,"109.77.110.5","Mozilla/5.0 (X11; Ubuntu; Linux x86_64; rv:93.0) Gecko/20100101 Firefox/93.0",NA,"Firefox",93,"Ubuntu",NA,"3a61329f9539c1793efb98a4faa2e6fe",2,"null","1","null",2,1,"killing is wrong",2,NA
11,"cog_load","null","""","html-keyboard-response",89,393099,"0.0-3.0-1.0-14.0-1.0-1.0-3.0","cok0wbmz3x7g9n4",39,1,1524,8,29252,"Trolley","cog_load",1,7335,"null","null","1",6,1,0,0,1,0,0,1,0,2,2,1468,"null","null","1",3,3076,"null","null","1",6,"""","<div style=""font-size:60px;"">1</div>","""","null","""",2021-11-01 21:14:18,"109.77.110.5","Mozilla/5.0 (X11; Ubuntu; Linux x86_64; rv:93.0) Gecko/20100101 Firefox/93.0",NA,"Firefox",93,"Ubuntu",NA,"3a61329f9539c1793efb98a4faa2e6fe",2,"null","1","null",2,1,"killing is wrong",2,NA
11,"cog_load","null","""","html-slider-response",90,413528,"0.0-3.0-1.0-14.0-1.0-2.0","cok0wbmz3x7g9n4",39,1,1524,8,29252,"Trolley","cog_load",1,7335,"null","null","1",6,1,0,0,1,0,0,1,0,2,2,1468,"null","null","1",3,3076,"null","null","1",6,"""","<video autoplay muted><source src='video/num_scroll_test9.mp4' type='video/mp4'></video><br><p>How would you rate the actions of Paul?</p><p>(1 = Morally Wrong; and 7 = Morally Right)</p>","""","""","null",2021-11-01 21:14:18,"109.77.110.5","Mozilla/5.0 (X11; Ubuntu; Linux x86_64; rv:93.0) Gecko/20100101 Firefox/93.0",NA,"Firefox",93,"Ubuntu",NA,"3a61329f9539c1793efb98a4faa2e6fe",2,"null","1","null",2,1,"killing is wrong",2,NA
11,"cog_load","null","""","html-keyboard-response",91,414034,"0.0-3.0-1.0-14.0-2.0-0.0-0.0","cok0wbmz3x7g9n4",39,1,1524,8,29252,"Trolley","cog_load",1,7335,"null","null","1",6,1,0,0,1,0,0,1,0,2,2,1468,"null","null","1",3,3076,"null","null","1",6,"""","""","""","null","""",2021-11-01 21:14:18,"109.77.110.5","Mozilla/5.0 (X11; Ubuntu; Linux x86_64; rv:93.0) Gecko/20100101 Firefox/93.0",NA,"Firefox",93,"Ubuntu",NA,"3a61329f9539c1793efb98a4faa2e6fe",2,"null","1","null",2,1,"killing is wrong",2,NA
11,"cog_load","null","""","html-keyboard-response",92,416077,"0.0-3.0-1.0-14.0-2.0-0.0-1.0","cok0wbmz3x7g9n4",39,1,1524,8,29252,"Trolley","cog_load",1,7335,"null","null","1",6,1,0,0,1,0,0,1,0,2,2,1468,"null","null","1",3,3076,"null","null","1",6,"""","<p>Oops! Your time has run out. Please try again.</p>","""","null","""",2021-11-01 21:14:18,"109.77.110.5","Mozilla/5.0 (X11; Ubuntu; Linux x86_64; rv:93.0) Gecko/20100101 Firefox/93.0",NA,"Firefox",93,"Ubuntu",NA,"3a61329f9539c1793efb98a4faa2e6fe",2,"null","1","null",2,1,"killing is wrong",2,NA
11,"cog_load","null","""","html-keyboard-response",93,416579,"0.0-3.0-1.0-14.0-2.0-1.0-0.0","cok0wbmz3x7g9n4",39,1,1524,8,29252,"Trolley","cog_load",1,7335,"null","null","1",6,1,0,0,1,0,0,1,0,2,2,1468,"null","null","1",3,3076,"null","null","1",6,"""","""","""","null","""",2021-11-01 21:14:18,"109.77.110.5","Mozilla/5.0 (X11; Ubuntu; Linux x86_64; rv:93.0) Gecko/20100101 Firefox/93.0",NA,"Firefox",93,"Ubuntu",NA,"3a61329f9539c1793efb98a4faa2e6fe",2,"null","1","null",2,1,"killing is wrong",2,NA
11,"cog_load","null","""","html-keyboard-response",94,417180,"0.0-3.0-1.0-14.0-2.0-1.0-1.0","cok0wbmz3x7g9n4",39,1,1524,8,29252,"Trolley","cog_load",1,7335,"null","null","1",6,1,0,0,1,0,0,1,0,2,2,1468,"null","null","1",3,3076,"null","null","1",6,"""","<div style=""font-size:60px;"">3</div>","""","null","""",2021-11-01 21:14:18,"109.77.110.5","Mozilla/5.0 (X11; Ubuntu; Linux x86_64; rv:93.0) Gecko/20100101 Firefox/93.0",NA,"Firefox",93,"Ubuntu",NA,"3a61329f9539c1793efb98a4faa2e6fe",2,"null","1","null",2,1,"killing is wrong",2,NA
11,"cog_load","null","""","html-keyboard-response",95,418183,"0.0-3.0-1.0-14.0-2.0-1.0-2.0","cok0wbmz3x7g9n4",39,1,1524,8,29252,"Trolley","cog_load",1,7335,"null","null","1",6,1,0,0,1,0,0,1,0,2,2,1468,"null","null","1",3,3076,"null","null","1",6,"""","<div style=""font-size:60px;"">2</div>","""","null","""",2021-11-01 21:14:18,"109.77.110.5","Mozilla/5.0 (X11; Ubuntu; Linux x86_64; rv:93.0) Gecko/20100101 Firefox/93.0",NA,"Firefox",93,"Ubuntu",NA,"3a61329f9539c1793efb98a4faa2e6fe",2,"null","1","null",2,1,"killing is wrong",2,NA
11,"cog_load","null","""","html-keyboard-response",96,419185,"0.0-3.0-1.0-14.0-2.0-1.0-3.0","cok0wbmz3x7g9n4",39,1,1524,8,29252,"Trolley","cog_load",1,7335,"null","null","1",6,1,0,0,1,0,0,1,0,2,2,1468,"null","null","1",3,3076,"null","null","1",6,"""","<div style=""font-size:60px;"">1</div>","""","null","""",2021-11-01 21:14:18,"109.77.110.5","Mozilla/5.0 (X11; Ubuntu; Linux x86_64; rv:93.0) Gecko/20100101 Firefox/93.0",NA,"Firefox",93,"Ubuntu",NA,"3a61329f9539c1793efb98a4faa2e6fe",2,"null","1","null",2,1,"killing is wrong",2,NA
11,"cog_load","3076","""","html-slider-response",97,422672,"0.0-3.0-1.0-14.0-2.0-2.0","cok0wbmz3x7g9n4",39,1,1524,8,29252,"Trolley","cog_load",1,7335,"null","null","1",6,1,0,0,1,0,0,1,0,2,2,1468,"null","null","1",3,3076,"null","null","1",6,"""","<video autoplay muted><source src='video/num_scroll_test9.mp4' type='video/mp4'></video><br><p>How would you rate the actions of Paul?</p><p>(1 = Morally Wrong; and 7 = Morally Right)</p>","""","""","3",2021-11-01 21:14:18,"109.77.110.5","Mozilla/5.0 (X11; Ubuntu; Linux x86_64; rv:93.0) Gecko/20100101 Firefox/93.0",NA,"Firefox",93,"Ubuntu",NA,"3a61329f9539c1793efb98a4faa2e6fe",2,"null","1","null",2,1,"killing is wrong",2,NA
11,"cog_load","4163","""","survey-text",98,426872,"0.0-3.0-1.0-15.0","cok0wbmz3x7g9n4",39,1,1524,8,29252,"Trolley","cog_load",1,7335,"null","null","1",6,1,0,0,1,0,0,1,0,2,2,1468,"null","null","1",3,3076,"null","null","1",6,"{""Q0"":""2""}","""","""","""","""",2021-11-01 21:14:18,"109.77.110.5","Mozilla/5.0 (X11; Ubuntu; Linux x86_64; rv:93.0) Gecko/20100101 Firefox/93.0",NA,"Firefox",93,"Ubuntu",NA,"3a61329f9539c1793efb98a4faa2e6fe",2,"null","1","null",2,1,"killing is wrong",2,NA
11,"cog_load","3585","""","html-slider-response",99,430465,"0.0-3.0-1.0-16.0","cok0wbmz3x7g9n4",39,1,1524,8,29252,"Trolley","cog_load",1,7335,"null","null","1",6,1,0,0,1,0,0,1,0,2,2,1468,"null","null","1",3,3076,"null","null","1",6,"""","<p>How confident are you about your judgement?</p><p>(1 = Not at all Confident; 7 = Extremely Confident)</p>","""","""","6",2021-11-01 21:14:18,"109.77.110.5","Mozilla/5.0 (X11; Ubuntu; Linux x86_64; rv:93.0) Gecko/20100101 Firefox/93.0",NA,"Firefox",93,"Ubuntu",NA,"3a61329f9539c1793efb98a4faa2e6fe",2,"null","1","null",2,1,"killing is wrong",2,NA
11,"cog_load","1941","debriefing_form.html","external-html",100,432732,"0.0-4.0","cok0wbmz3x7g9n4",39,1,1524,8,29252,"Trolley","cog_load",1,7335,"null","null","1",6,1,0,0,1,0,0,1,0,2,2,1468,"null","null","1",3,3076,"null","null","1",6,"""","""","""","""","""",2021-11-01 21:14:18,"109.77.110.5","Mozilla/5.0 (X11; Ubuntu; Linux x86_64; rv:93.0) Gecko/20100101 Firefox/93.0",NA,"Firefox",93,"Ubuntu",NA,"3a61329f9539c1793efb98a4faa2e6fe",2,"null","1","null",2,1,"killing is wrong",2,NA
12,"cog_load","3699","information_sheet.html","external-html",0,3852,"0.0-0.0","56g5ug4p88o9c95",29,3,11876,3,3829,"Heinz","cog_load",2,6379,"1","null","null",5,0,0,1,0,0,1,0,1,2,1,1603,"null","1","null",1,3624,"1","null","null",5,"""","""","""","""","""",2021-11-01 21:21:59,"109.77.110.5","Mozilla/5.0 (X11; Ubuntu; Linux x86_64; rv:93.0) Gecko/20100101 Firefox/93.0",NA,"Firefox",93,"Ubuntu",NA,"3a61329f9539c1793efb98a4faa2e6fe",2,"1","null","null",2,1,NA,3,"other"
12,"cog_load","2948","consent_form.html","external-html",1,7018,"0.0-1.0","56g5ug4p88o9c95",29,3,11876,3,3829,"Heinz","cog_load",2,6379,"1","null","null",5,0,0,1,0,0,1,0,1,2,1,1603,"null","1","null",1,3624,"1","null","null",5,"""","""","""","""","""",2021-11-01 21:21:59,"109.77.110.5","Mozilla/5.0 (X11; Ubuntu; Linux x86_64; rv:93.0) Gecko/20100101 Firefox/93.0",NA,"Firefox",93,"Ubuntu",NA,"3a61329f9539c1793efb98a4faa2e6fe",2,"1","null","null",2,1,NA,3,"other"
12,"cog_load","8933","""","survey-text",2,15975,"0.0-2.0-0.0","56g5ug4p88o9c95",29,3,11876,3,3829,"Heinz","cog_load",2,6379,"1","null","null",5,0,0,1,0,0,1,0,1,2,1,1603,"null","1","null",1,3624,"1","null","null",5,"{""age_q"":""29""}","""","""","""","""",2021-11-01 21:21:59,"109.77.110.5","Mozilla/5.0 (X11; Ubuntu; Linux x86_64; rv:93.0) Gecko/20100101 Firefox/93.0",NA,"Firefox",93,"Ubuntu",NA,"3a61329f9539c1793efb98a4faa2e6fe",2,"1","null","null",2,1,NA,3,"other"
12,"cog_load","11876","""","html-button-response",3,27868,"0.0-2.0-1.0-0.0","56g5ug4p88o9c95",29,3,11876,3,3829,"Heinz","cog_load",2,6379,"1","null","null",5,0,0,1,0,0,1,0,1,2,1,1603,"null","1","null",1,3624,"1","null","null",5,"""","<p>Please select your gender:</p>","3","""","""",2021-11-01 21:21:59,"109.77.110.5","Mozilla/5.0 (X11; Ubuntu; Linux x86_64; rv:93.0) Gecko/20100101 Firefox/93.0",NA,"Firefox",93,"Ubuntu",NA,"3a61329f9539c1793efb98a4faa2e6fe",2,"1","null","null",2,1,NA,3,"other"
12,"cog_load","10700","""","survey-text",4,38580,"0.0-2.0-1.0-1.0-0.0","56g5ug4p88o9c95",29,3,11876,3,3829,"Heinz","cog_load",2,6379,"1","null","null",5,0,0,1,0,0,1,0,1,2,1,1603,"null","1","null",1,3624,"1","null","null",5,"{""Q0"":""other""}","""","""","""","""",2021-11-01 21:21:59,"109.77.110.5","Mozilla/5.0 (X11; Ubuntu; Linux x86_64; rv:93.0) Gecko/20100101 Firefox/93.0",NA,"Firefox",93,"Ubuntu",NA,"3a61329f9539c1793efb98a4faa2e6fe",2,"1","null","null",2,1,NA,3,"other"
12,"cog_load","6952","""","html-button-response",5,45542,"0.0-3.0-0.0-0.0-0.0","56g5ug4p88o9c95",29,3,11876,3,3829,"Heinz","cog_load",2,6379,"1","null","null",5,0,0,1,0,0,1,0,1,2,1,1603,"null","1","null",1,3624,"1","null","null",5,"""","<ul><p style=""text-align: left""><b>Attention task - Instructions</b></p><li><p style=""text-align: left"">Part of this study will involve completing an attention / memory task at the same time as answering a question.</p></li><li><p style=""text-align: left"">Some question pages include a video displaying a stream of numbers scrolling, displayed directly above the question text.</p></li><li><p style=""text-align: left"">You will be asked to count how many times a particular number appears in this video, while answering the question at the same time.<br>(You may find it useful to tap your finger each time you see the number)</p></li><li><p style=""text-align: left"">These question pages will expire when you answer the question or after 20 seconds (whichever is sooner). You will only have three attempts to answer the question.</p></li><li><p style=""text-align: left"">On the page immediately following this attention task, <b>you will be asked to report</b> how many times the target number appeared.<br>(accuracy of responses will be determined by combining responses data with reaction time data)</p></li><li><p style=""text-align: left"">Click ""Continue"" to proceed to an example of what these attention task pages will look like.</p></li></ul>","0","""","""",2021-11-01 21:21:59,"109.77.110.5","Mozilla/5.0 (X11; Ubuntu; Linux x86_64; rv:93.0) Gecko/20100101 Firefox/93.0",NA,"Firefox",93,"Ubuntu",NA,"3a61329f9539c1793efb98a4faa2e6fe",2,"1","null","null",2,1,NA,3,"other"
12,"cog_load","1015","""","html-button-response",6,46596,"0.0-3.0-0.0-0.0-1.0","56g5ug4p88o9c95",29,3,11876,3,3829,"Heinz","cog_load",2,6379,"1","null","null",5,0,0,1,0,0,1,0,1,2,1,1603,"null","1","null",1,3624,"1","null","null",5,"""","<p><b>Example</b></p><br><video autoplay muted><source src='video/num_scroll_test7.mp4' type='video/mp4'></video><br><p>[Question text will go here. Click any response to continue]","0","""","""",2021-11-01 21:21:59,"109.77.110.5","Mozilla/5.0 (X11; Ubuntu; Linux x86_64; rv:93.0) Gecko/20100101 Firefox/93.0",NA,"Firefox",93,"Ubuntu",NA,"3a61329f9539c1793efb98a4faa2e6fe",2,"1","null","null",2,1,NA,3,"other"
12,"cog_load","1163","""","html-button-response",7,48160,"0.0-3.0-0.0-0.0-2.0","56g5ug4p88o9c95",29,3,11876,3,3829,"Heinz","cog_load",2,6379,"1","null","null",5,0,0,1,0,0,1,0,1,2,1,1603,"null","1","null",1,3624,"1","null","null",5,"""","<p style=""text-align: left"">The next page contains a practice trial</p><p style=""text-align: left"">On the next page you will be presented with a <i>number scroll</i> video, along with a question.</p><br><p style=""text-align: left; font-size:20px;"">Please count how many times you see the number:<br></p><p style=""font-size:40px;""><b>eight: 8</b></p>","0","""","""",2021-11-01 21:21:59,"109.77.110.5","Mozilla/5.0 (X11; Ubuntu; Linux x86_64; rv:93.0) Gecko/20100101 Firefox/93.0",NA,"Firefox",93,"Ubuntu",NA,"3a61329f9539c1793efb98a4faa2e6fe",2,"1","null","null",2,1,NA,3,"other"
12,"cog_load","null","""","html-keyboard-response",8,48663,"0.0-3.0-0.0-0.0-3.0-0.0","56g5ug4p88o9c95",29,3,11876,3,3829,"Heinz","cog_load",2,6379,"1","null","null",5,0,0,1,0,0,1,0,1,2,1,1603,"null","1","null",1,3624,"1","null","null",5,"""","""","""","null","""",2021-11-01 21:21:59,"109.77.110.5","Mozilla/5.0 (X11; Ubuntu; Linux x86_64; rv:93.0) Gecko/20100101 Firefox/93.0",NA,"Firefox",93,"Ubuntu",NA,"3a61329f9539c1793efb98a4faa2e6fe",2,"1","null","null",2,1,NA,3,"other"
12,"cog_load","null","""","html-keyboard-response",9,49265,"0.0-3.0-0.0-0.0-3.0-1.0","56g5ug4p88o9c95",29,3,11876,3,3829,"Heinz","cog_load",2,6379,"1","null","null",5,0,0,1,0,0,1,0,1,2,1,1603,"null","1","null",1,3624,"1","null","null",5,"""","<div style=""font-size:60px;"">3</div>","""","null","""",2021-11-01 21:21:59,"109.77.110.5","Mozilla/5.0 (X11; Ubuntu; Linux x86_64; rv:93.0) Gecko/20100101 Firefox/93.0",NA,"Firefox",93,"Ubuntu",NA,"3a61329f9539c1793efb98a4faa2e6fe",2,"1","null","null",2,1,NA,3,"other"
12,"cog_load","null","""","html-keyboard-response",10,50267,"0.0-3.0-0.0-0.0-3.0-2.0","56g5ug4p88o9c95",29,3,11876,3,3829,"Heinz","cog_load",2,6379,"1","null","null",5,0,0,1,0,0,1,0,1,2,1,1603,"null","1","null",1,3624,"1","null","null",5,"""","<div style=""font-size:60px;"">2</div>","""","null","""",2021-11-01 21:21:59,"109.77.110.5","Mozilla/5.0 (X11; Ubuntu; Linux x86_64; rv:93.0) Gecko/20100101 Firefox/93.0",NA,"Firefox",93,"Ubuntu",NA,"3a61329f9539c1793efb98a4faa2e6fe",2,"1","null","null",2,1,NA,3,"other"
12,"cog_load","null","""","html-keyboard-response",11,51269,"0.0-3.0-0.0-0.0-3.0-3.0","56g5ug4p88o9c95",29,3,11876,3,3829,"Heinz","cog_load",2,6379,"1","null","null",5,0,0,1,0,0,1,0,1,2,1,1603,"null","1","null",1,3624,"1","null","null",5,"""","<div style=""font-size:60px;"">1</div>","""","null","""",2021-11-01 21:21:59,"109.77.110.5","Mozilla/5.0 (X11; Ubuntu; Linux x86_64; rv:93.0) Gecko/20100101 Firefox/93.0",NA,"Firefox",93,"Ubuntu",NA,"3a61329f9539c1793efb98a4faa2e6fe",2,"1","null","null",2,1,NA,3,"other"
12,"cog_load","1500","""","html-button-response",12,53175,"0.0-3.0-0.0-0.0-4.0-0.0","56g5ug4p88o9c95",29,3,11876,3,3829,"Heinz","cog_load",2,6379,"1","null","null",5,0,0,1,0,0,1,0,1,2,1,1603,"null","1","null",1,3624,"1","null","null",5,"""","<p><b>Example</b></p><video autoplay muted><source src='video/num_scroll_test9.mp4' type='video/mp4'></video><br><p>Do you find multi-tasking difficult?</p>","2","""","""",2021-11-01 21:21:59,"109.77.110.5","Mozilla/5.0 (X11; Ubuntu; Linux x86_64; rv:93.0) Gecko/20100101 Firefox/93.0",NA,"Firefox",93,"Ubuntu",NA,"3a61329f9539c1793efb98a4faa2e6fe",2,"1","null","null",2,1,NA,3,"other"
12,"cog_load","3662","""","survey-text",13,56843,"0.0-3.0-0.0-0.0-5.0","56g5ug4p88o9c95",29,3,11876,3,3829,"Heinz","cog_load",2,6379,"1","null","null",5,0,0,1,0,0,1,0,1,2,1,1603,"null","1","null",1,3624,"1","null","null",5,"{""Q0"":""2""}","""","""","""","""",2021-11-01 21:21:59,"109.77.110.5","Mozilla/5.0 (X11; Ubuntu; Linux x86_64; rv:93.0) Gecko/20100101 Firefox/93.0",NA,"Firefox",93,"Ubuntu",NA,"3a61329f9539c1793efb98a4faa2e6fe",2,"1","null","null",2,1,NA,3,"other"
12,"cog_load","null","""","html-keyboard-response",14,57346,"0.0-3.0-0.0-1.0","56g5ug4p88o9c95",29,3,11876,3,3829,"Heinz","cog_load",2,6379,"1","null","null",5,0,0,1,0,0,1,0,1,2,1,1603,"null","1","null",1,3624,"1","null","null",5,"""","""","""","null","""",2021-11-01 21:21:59,"109.77.110.5","Mozilla/5.0 (X11; Ubuntu; Linux x86_64; rv:93.0) Gecko/20100101 Firefox/93.0",NA,"Firefox",93,"Ubuntu",NA,"3a61329f9539c1793efb98a4faa2e6fe",2,"1","null","null",2,1,NA,3,"other"
12,"cog_load","3829","""","html-button-response",15,61178,"0.0-3.0-0.0-2.0","56g5ug4p88o9c95",29,3,11876,3,3829,"Heinz","cog_load",2,6379,"1","null","null",5,0,0,1,0,0,1,0,1,2,1,1603,"null","1","null",1,3624,"1","null","null",5,"""","<img src=""img/attention1.png""><br><p>Please select a word that describes how you are currently feeling:","3","""","""",2021-11-01 21:21:59,"109.77.110.5","Mozilla/5.0 (X11; Ubuntu; Linux x86_64; rv:93.0) Gecko/20100101 Firefox/93.0",NA,"Firefox",93,"Ubuntu",NA,"3a61329f9539c1793efb98a4faa2e6fe",2,"1","null","null",2,1,NA,3,"other"
12,"cog_load","null","""","html-keyboard-response",16,61687,"0.0-3.0-0.0-3.0","56g5ug4p88o9c95",29,3,11876,3,3829,"Heinz","cog_load",2,6379,"1","null","null",5,0,0,1,0,0,1,0,1,2,1,1603,"null","1","null",1,3624,"1","null","null",5,"""","""","""","null","""",2021-11-01 21:21:59,"109.77.110.5","Mozilla/5.0 (X11; Ubuntu; Linux x86_64; rv:93.0) Gecko/20100101 Firefox/93.0",NA,"Firefox",93,"Ubuntu",NA,"3a61329f9539c1793efb98a4faa2e6fe",2,"1","null","null",2,1,NA,3,"other"
12,"cog_load","1139","""","html-button-response",17,62828,"0.0-3.0-1.0-0.0","56g5ug4p88o9c95",29,3,11876,3,3829,"Heinz","cog_load",2,6379,"1","null","null",5,0,0,1,0,0,1,0,1,2,1,1603,"null","1","null",1,3624,"1","null","null",5,"""","<p>You will shortly be presented with a scenario. Following this you will be asked a series of questions</p><p>","0","""","""",2021-11-01 21:21:59,"109.77.110.5","Mozilla/5.0 (X11; Ubuntu; Linux x86_64; rv:93.0) Gecko/20100101 Firefox/93.0",NA,"Firefox",93,"Ubuntu",NA,"3a61329f9539c1793efb98a4faa2e6fe",2,"1","null","null",2,1,NA,3,"other"
12,"cog_load","946","""","html-button-response",18,63778,"0.0-3.0-1.0-1.0","56g5ug4p88o9c95",29,3,11876,3,3829,"Heinz","cog_load",2,6379,"1","null","null",5,0,0,1,0,0,1,0,1,2,1,1603,"null","1","null",1,3624,"1","null","null",5,"""","<p style='max-width: 800px; text-align: left; font-size: 18px'>In Europe, a woman was near death from a very bad disease, a special kind of cancer. There was one drug that the doctors thought might save her. It was a form of radium for which a Druggist was charging ten times what the drug cost him to make. The sick woman's husband, Heinz, went to everyone he knew to borrow the money, but he could only get together about half of what it cost. He told the Druggist that his wife was dying, and asked him to sell it cheaper or let him pay later. But the Druggist said, 'No, I discovered the drug and I'm going to make money from it.' So, Heinz got desperate and broke into the man's store to steal the drug for his wife. The Druggist had Heinz arrested and charge.</p>","0","""","""",2021-11-01 21:21:59,"109.77.110.5","Mozilla/5.0 (X11; Ubuntu; Linux x86_64; rv:93.0) Gecko/20100101 Firefox/93.0",NA,"Firefox",93,"Ubuntu",NA,"3a61329f9539c1793efb98a4faa2e6fe",2,"1","null","null",2,1,NA,3,"other"
12,"cog_load","1061","""","html-button-response",19,64843,"0.0-3.0-1.0-2.0","56g5ug4p88o9c95",29,3,11876,3,3829,"Heinz","cog_load",2,6379,"1","null","null",5,0,0,1,0,0,1,0,1,2,1,1603,"null","1","null",1,3624,"1","null","null",5,"""","<p style=""text-align: left"">The next page contains a <b>question</b> and an <b>attention task</b> (<i>number scroll</i> video)</p><br><p style=""text-align: left; font-size:20px;"">While answering the question, please count how many times you see the number below:<br></p><p style=""font-size:40px;""><b>zero: 0</b></p><p>(The next page will expire within 20 seconds)</br>(You will have 3 attempts at this question)</p>","0","""","""",2021-11-01 21:21:59,"109.77.110.5","Mozilla/5.0 (X11; Ubuntu; Linux x86_64; rv:93.0) Gecko/20100101 Firefox/93.0",NA,"Firefox",93,"Ubuntu",NA,"3a61329f9539c1793efb98a4faa2e6fe",2,"1","null","null",2,1,NA,3,"other"
12,"cog_load","null","""","html-keyboard-response",20,65346,"0.0-3.0-1.0-3.0-0.0","56g5ug4p88o9c95",29,3,11876,3,3829,"Heinz","cog_load",2,6379,"1","null","null",5,0,0,1,0,0,1,0,1,2,1,1603,"null","1","null",1,3624,"1","null","null",5,"""","""","""","null","""",2021-11-01 21:21:59,"109.77.110.5","Mozilla/5.0 (X11; Ubuntu; Linux x86_64; rv:93.0) Gecko/20100101 Firefox/93.0",NA,"Firefox",93,"Ubuntu",NA,"3a61329f9539c1793efb98a4faa2e6fe",2,"1","null","null",2,1,NA,3,"other"
12,"cog_load","null","""","html-keyboard-response",21,65947,"0.0-3.0-1.0-3.0-1.0","56g5ug4p88o9c95",29,3,11876,3,3829,"Heinz","cog_load",2,6379,"1","null","null",5,0,0,1,0,0,1,0,1,2,1,1603,"null","1","null",1,3624,"1","null","null",5,"""","<div style=""font-size:60px;"">3</div>","""","null","""",2021-11-01 21:21:59,"109.77.110.5","Mozilla/5.0 (X11; Ubuntu; Linux x86_64; rv:93.0) Gecko/20100101 Firefox/93.0",NA,"Firefox",93,"Ubuntu",NA,"3a61329f9539c1793efb98a4faa2e6fe",2,"1","null","null",2,1,NA,3,"other"
12,"cog_load","null","""","html-keyboard-response",22,66949,"0.0-3.0-1.0-3.0-2.0","56g5ug4p88o9c95",29,3,11876,3,3829,"Heinz","cog_load",2,6379,"1","null","null",5,0,0,1,0,0,1,0,1,2,1,1603,"null","1","null",1,3624,"1","null","null",5,"""","<div style=""font-size:60px;"">2</div>","""","null","""",2021-11-01 21:21:59,"109.77.110.5","Mozilla/5.0 (X11; Ubuntu; Linux x86_64; rv:93.0) Gecko/20100101 Firefox/93.0",NA,"Firefox",93,"Ubuntu",NA,"3a61329f9539c1793efb98a4faa2e6fe",2,"1","null","null",2,1,NA,3,"other"
12,"cog_load","null","""","html-keyboard-response",23,67956,"0.0-3.0-1.0-3.0-3.0","56g5ug4p88o9c95",29,3,11876,3,3829,"Heinz","cog_load",2,6379,"1","null","null",5,0,0,1,0,0,1,0,1,2,1,1603,"null","1","null",1,3624,"1","null","null",5,"""","<div style=""font-size:60px;"">1</div>","""","null","""",2021-11-01 21:21:59,"109.77.110.5","Mozilla/5.0 (X11; Ubuntu; Linux x86_64; rv:93.0) Gecko/20100101 Firefox/93.0",NA,"Firefox",93,"Ubuntu",NA,"3a61329f9539c1793efb98a4faa2e6fe",2,"1","null","null",2,1,NA,3,"other"
