"run_id","condition","rt","url","trial_type","trial_index","time_elapsed","internal_node_id","PROLIFIC_PID","SESSION_ID","STUDY_ID","preview","subject","age","gender","gender_rt","attention_check2","attention_check2_rt","attention_check1","attention_check1_rt","scenario","test_condition","InJu1","InJu1_rt","InJu1_trial1","InJu1_trial2","InJu1_trial3","conf1","ca1","sw1","rsn1","ca2","sw2","rsn2","ca3","sw3","rsn3","CS","CS_rt","CS_trial1","CS_trial2","CS_trial3","InJu2","InJu2_rt","InJu2_trial1","InJu2_trial2","InJu2_trial3","conf2","previous_experience","responses","stimulus","button_pressed","key_press","response","cog_practice","cog_practice1","cog_practice2","cog_practice3","cog_load_response8","cog_load_response0","reason","cog_load_response5","cog_practice_trial_number","InJu1_trial_number","CS_trial_number","InJu2_trial_number","Ju1_bin","Ju2_bin","InCS","j1","j2","j3","j4","j5","j6","ch1","ch2","ch3","ch4","ch5","Rch1","Rch2","Rs_changed","Rs_changed_tot","changed","changed_tot","rs1","rs2","rs3","rs4","rs5","rs6","rs1_bin","rs2_bin","rs3_bin","reason_always"
424,"cog_load","3695.2999999523163","debriefing_form.html","external-html",61,312195,"0.0-7.0","54905775fdf99b7255546dfe","618c496e091dd9b5edf10a2e","618c128dfba7721f72bf2b25",NA,"v52ngfke8f2bz25","33",1,1613.60000002384,1,19859.7999999523,8,14687.3000000715,"Heinz","cog_load","2","16101",1,0,0,3,0,0,0,0,1,0,0,1,0,2,13286.8999999762,1,0,0,"2","12842.600000023842",1,0,0,5,"no","""","""","""","""","""",2,0,2,0,"1","2","2","1",2,1,1,1,"wrong","wrong","It's wrong and I can provide a valid reason.","wrong","wrong","not wrong","not wrong","wrong","wrong",FALSE,TRUE,FALSE,TRUE,FALSE,FALSE,FALSE,FALSE,0,TRUE,2,"unstated","reason","reason","reason","reason","unstated","reason","reason","reason",TRUE
721,"control","37895.40000009537","debriefing_form.html","external-html",27,294974,"0.0-7.0","54f225d6fdf99b66cd167ef3","618c6990f4b5710fdc0fb396","618c128dfba7721f72bf2b1b",NA,"kf3ckuy9okdrdow","54f225d6fdf99b66cd167ef3",0,2103,1,15659.5999999046,8,32870.5,"Heinz","control","2","13365.600000143051",1,0,0,6,0,1,2,0,0,2,0,0,2,2,10629.2999999523,1,0,0,"1","5075",1,0,0,6,"No.","""","""","""","""","""",NA,NA,NA,NA,NA,NA,"He  was charging much more for the drug than was reasonable for him to make a good living. Also he had no reason not to let Heinz pay the remainder later.",NA,NA,1,1,1,"wrong","wrong","It's wrong and I can provide a valid reason.","wrong","not wrong","wrong","wrong","wrong","wrong",TRUE,TRUE,FALSE,FALSE,FALSE,FALSE,FALSE,FALSE,0,TRUE,2,"unstated","2","2","2","reason","unstated","2","2","2",FALSE
263,NA,"8553.5","""","html-button-response",6,191023,"0.0-4.0-1.0","557481b5fdf99b1db34e6fd3","618c3fc4f33302f570d66b71","618c128dfba7721f72bf2b1b",NA,"62q0t84lloxr66j","61",0,1315.39999999106,1,5627.79999999702,8,8553.5,NA,NA,NA,NA,NA,NA,NA,NA,NA,NA,NA,NA,NA,NA,NA,NA,NA,NA,NA,NA,NA,NA,NA,NA,NA,NA,NA,NA,NA,"""","<img src=""img/attention1.png""><br><p>Please select a word that describes how you are currently feeling:","8","""",NA,NA,NA,NA,NA,NA,NA,NA,NA,NA,NA,NA,NA,NA,NA,NA,NA,NA,NA,NA,NA,NA,NA,NA,NA,NA,NA,NA,NA,NA,NA,NA,NA,"unstated",NA,NA,NA,NA,"unstated",NA,NA,NA,NA
823,"cog_load","6401","""","survey-text",52,340285,"0.0-6.0","558bb476fdf99b21155f2dbf","618c9d8c821dde4bc5da0ddb","618c128dfba7721f72bf2b1b",NA,"3zbh3re3efd07w1","70",0,2165.89999999991,1,8009.79999999981,8,24206.7,"Incest","cog_load","2","14951.600000000093",1,0,0,6,0,0,2,0,0,2,1,0,2,1,8454.10000000009,1,0,0,"2","5125.699999999953",1,0,0,6,"no","{""Q0"":""no""}","""","""","""","""",2,1,0,0,"1","1",NA,"1",1,1,1,1,"wrong","wrong","It's wrong but I can't think of a reason.","wrong","wrong","wrong","wrong","wrong","wrong",FALSE,FALSE,FALSE,FALSE,FALSE,FALSE,FALSE,FALSE,0,FALSE,0,"unstated","2","2","2","no reason","unstated","2","2","2",FALSE
818,"cog_load","5191.799999982119","""","survey-text",60,557345,"0.0-6.0","559272f4fdf99b7e42e96932","618c9bb3d8a1b77098819dd4","618c128dfba7721f72bf2b20",NA,"dm8dq9u6gktdqtu","51",1,1837.5,1,29132.2999999821,8,38267.7999999821,"Heinz","cog_load","3","12582.800000011921",1,0,0,6,0,0,0,0,0,0,0,0,0,2,14884.099999994,1,0,0,"2","14209.40000000596",1,0,0,6,"no","{""Q0"":""no""}","""","""","""","""",2,0,2,0,"1","3","3","1",2,1,1,1,"wrong","wrong","It's wrong and I can provide a valid reason.","wrong","wrong","wrong","wrong","wrong","wrong",FALSE,FALSE,FALSE,FALSE,FALSE,FALSE,FALSE,FALSE,0,FALSE,0,"unstated","reason","reason","reason","reason","unstated","reason","reason","reason",TRUE
869,"control","77774.90000009537","""","survey-text",25,493058,"0.0-6.0","5592fd82fdf99b59a8fb1e61","618ca9efabd22cd85a1dea30","618c128dfba7721f72bf2b1b",NA,"ra6dxt4hq1b3vy0","66",0,1862.39999997616,1,32388.3999999762,8,61486.6999999285,"Heinz","control","2","30602.399999976158",1,0,0,5,0,0,2,0,0,0,0,0,0,1,14024.5,1,0,0,"2","34577.300000071526",1,0,0,3,"no","{""Q0"":""the druggist hasn't done anything wrong but what about humanity,  the man stole which is wrong but you can see the reason why""}","""","""","""","""",NA,NA,NA,NA,NA,NA,NA,NA,NA,1,1,1,"wrong","wrong","It's wrong but I can't think of a reason.","wrong","wrong","wrong","wrong","wrong","wrong",FALSE,FALSE,FALSE,FALSE,FALSE,TRUE,FALSE,TRUE,1,FALSE,0,"unstated","2","reason","reason","no reason","unstated","2","reason","reason",FALSE
580,"control","23642","debriefing_form.html","external-html",27,220160,"0.0-7.0","559ac2c8fdf99b21ba9b0244","618c557addbbfec69a4e595d","618c128dfba7721f72bf2b11",NA,"omwwrj6aglmqjb2","53",0,1901,1,12826,8,22596,"Heinz","control","2","6154.000000000015",1,0,0,7,0,1,0,0,1,0,0,0,0,2,10683,1,0,0,"1","4814",1,0,0,7,"No","""","""","""","""","""",NA,NA,NA,NA,NA,NA,"He could have still made a living by charging less for the drug he would probably have made more money because would have sold more in my opinion",NA,NA,1,1,1,"wrong","wrong","It's wrong and I can provide a valid reason.","wrong","not wrong","not wrong","wrong","wrong","wrong",TRUE,FALSE,TRUE,FALSE,FALSE,FALSE,FALSE,FALSE,0,TRUE,2,"unstated","reason","reason","reason","reason","unstated","reason","reason","reason",TRUE
489,"control","18618.99999999997","debriefing_form.html","external-html",27,275607,"0.0-7.0","559da2ccfdf99b31e5c871ed","618c4e521365b0fbe35d4781","618c128dfba7721f72bf2b1b",NA,"tfeup040qxu1hcw","59",0,4041,1,22043,8,31985,"Jennifer","control","1","6260.000000000015",1,0,0,7,0,0,0,0,0,0,0,0,0,2,8047,1,0,0,"1","8250",1,0,0,7,"No","""","""","""","""","""",NA,NA,NA,NA,NA,NA,"Cannabilism is morally wrong",NA,NA,1,1,1,"wrong","wrong","It's wrong and I can provide a valid reason.","wrong","wrong","wrong","wrong","wrong","wrong",FALSE,FALSE,FALSE,FALSE,FALSE,FALSE,FALSE,FALSE,0,FALSE,0,"unstated","reason","reason","reason","reason","unstated","reason","reason","reason",TRUE
251,"control","61931.19999998808","debriefing_form.html","external-html",27,475640,"0.0-7.0","55a7d0a1fdf99b65badeeed7","618c3edf59557429da3a7c02","618c128dfba7721f72bf2b33",NA,"ltdsyxjmr4auoew","40",0,2010.5,1,22111.8000000119,8,48313.2999999523,"Trolley","control","5","25789.100000023842",1,0,0,3,0,0,2,0,0,2,0,0,2,2,6577,1,0,0,"2","12647.299999952316",1,0,0,6,"No","""","""","""","""","""",NA,NA,NA,NA,NA,NA,"The fat man didn't choose to sacrifice himself. Paul has technically murdered him in order to save the five other people.",NA,NA,1,1,1,"right","wrong","It's wrong and I can provide a valid reason.","not wrong","wrong","wrong","wrong","wrong","wrong",TRUE,FALSE,FALSE,FALSE,FALSE,FALSE,FALSE,FALSE,0,TRUE,1,"unstated","2","2","2","reason","unstated","2","2","2",FALSE
636,"control","2697.7999999523163","""","survey-text",25,211836,"0.0-6.0","55ab63cafdf99b2dcdcc1ff2","618c59912dcb11e0eb541bf2","618c128dfba7721f72bf2b20",NA,"gy5pxrgq7lwpo59","48",1,2266.79999995232,1,9150.60000002384,8,12186.3999999762,"Heinz","control","2","5207.899999976158",1,0,0,5,0,0,2,1,0,2,0,0,2,1,4646.70000004768,1,0,0,"2","7858.900000095367",1,0,0,4,"No","{""Q0"":""}","""","""","""","""",NA,NA,NA,NA,NA,NA,NA,NA,NA,1,1,1,"wrong","wrong","It's wrong but I can't think of a reason.","wrong","wrong","wrong","wrong","wrong","wrong",FALSE,FALSE,FALSE,FALSE,FALSE,FALSE,FALSE,FALSE,0,FALSE,0,"unstated","2","2","2","no reason","unstated","2","2","2",FALSE
733,"control","5896","debriefing_form.html","external-html",26,410371,"0.0-7.0","55ac3198fdf99b6de3b68b23","618c6b8a6c604d0898f10e31","618c128dfba7721f72bf2b20",NA,"la7p5vvhgqaxgc7","57",1,2671,1,22636,8,36513,"Heinz","control","2","17234",1,0,0,5,0,1,2,0,0,0,0,1,0,0,16859,1,0,0,"5","11669",1,0,0,5,"no","""","""","""","""","""",NA,NA,NA,NA,NA,NA,NA,NA,NA,1,1,1,"wrong","right","There is nothing wrong.","wrong","not wrong","wrong","not wrong","not wrong","not wrong",TRUE,TRUE,TRUE,FALSE,FALSE,TRUE,FALSE,TRUE,1,TRUE,3,"unstated","2","reason","reason","unstated","unstated","2","reason","reason",FALSE
374,"cog_load","5253.299999999814","""","survey-text",59,336445,"0.0-6.0","55e837415e4d360012cc2737","618c4625d2324436fc25fded","618c128dfba7721f72bf2b0d",NA,"hfe1a12jdfrn5oy","37",0,1764.70000000019,1,19417.8000000007,8,17728.0999999996,"Jennifer","cog_load","1","13244.900000000373",1,0,0,5,0,0,2,0,0,2,0,0,2,1,8974.89999999944,0,2,0,"1","11014.200000000186",1,0,0,5,"No","{""Q0"":""No""}","""","""","""","""",2,1,0,0,"1","2",NA,"0",1,1,2,1,"wrong","wrong","It's wrong but I can't think of a reason.","wrong","wrong","wrong","wrong","wrong","wrong",FALSE,FALSE,FALSE,FALSE,FALSE,FALSE,FALSE,FALSE,0,FALSE,0,"unstated","2","2","2","no reason","unstated","2","2","2",FALSE
1024,"control","6530.199999988079","""","survey-text",25,146051,"0.0-6.0","55fd463977f33b0012cb2ba7","618d994b42b8ec5018d14a05","618d7b245d63c4043bcefa05",NA,"hku9t8ngbjcj9ug","31",0,980.699999988079,1,8620.90000000596,8,18957.5,"Jennifer","control","1","11498.89999999106",1,0,0,3,0,1,2,0,0,2,0,0,1,1,6599.5,1,0,0,"3","3534.7999999970198",1,0,0,3,"No","{""Q0"":""No, thank you.""}","""","""","""","""",NA,NA,NA,NA,NA,NA,NA,NA,NA,1,1,1,"wrong","wrong","It's wrong but I can't think of a reason.","wrong","not wrong","wrong","wrong","wrong","wrong",TRUE,TRUE,FALSE,FALSE,FALSE,FALSE,TRUE,TRUE,1,TRUE,2,"unstated","2","2","no reason","no reason","unstated","2","2","no reason",FALSE
78,"cog_load","361.59999999403954","""","survey-text",53,233298,"0.0-6.0","563dd65def3f150013b92f8d","618c2f9652ad35786aae7cb6","618c128dfba7721f72bf2b34",NA,"kawc1ubl3vr8dve","35",0,1859.59999999404,1,13575.6999999881,1,3155.09999999404,"Incest","cog_load","1","15107.90000000596",1,0,0,6,0,0,0,0,0,0,0,0,0,2,12948.2999999821,1,0,0,"1","12695.800000011921",1,0,0,6,"No","{""Q0"":""}","""","""","""","""",2,1,0,0,"1","2","AS they are siblings.","1",1,1,1,1,"wrong","wrong","It's wrong and I can provide a valid reason.","wrong","wrong","wrong","wrong","wrong","wrong",FALSE,FALSE,FALSE,FALSE,FALSE,FALSE,FALSE,FALSE,0,FALSE,0,"unstated","reason","reason","reason","reason","unstated","reason","reason","reason",TRUE
870,"control","3676.100000023842","debriefing_form.html","external-html",26,263794,"0.0-7.0","5654166804212700054a12aa","618cab7b99c81bfdd3fe2ebd","618c128dfba7721f72bf2b15",NA,"8z1f64f68u970ty","60",1,2000.29999995232,1,31465.3000000715,8,37233.7000000477,"Heinz","control","3","9590",1,0,0,6,0,1,2,0,0,0,0,0,0,0,10656.1000000238,1,0,0,"4","10409.200000047684",1,0,0,6,"No","""","""","""","""","""",NA,NA,NA,NA,NA,NA,NA,NA,NA,1,1,1,"wrong","neutral","There is nothing wrong.","wrong","not wrong","wrong","wrong","not wrong","not wrong",TRUE,TRUE,FALSE,TRUE,FALSE,TRUE,FALSE,TRUE,1,TRUE,3,"unstated","2","reason","reason","unstated","unstated","2","reason","reason",FALSE
490,"control","8472.00000000003","""","survey-text",25,216025,"0.0-6.0","566e1aec744e3e0005b4e668","618c4e5c0c30cd3e50700b37","618c128dfba7721f72bf2b28",NA,"07nquazc6jjbp9t","41",1,1225,4,15398,8,27365,"Incest","control","4","13654",1,0,0,4,0,1,2,0,1,0,0,1,0,0,9063,1,0,0,"4","8099",1,0,0,4,"No","{""Q0"":""No""}","""","""","""","""",NA,NA,NA,NA,NA,NA,NA,NA,NA,1,1,1,"neutral","neutral","There is nothing wrong.","not wrong","not wrong","not wrong","not wrong","not wrong","not wrong",FALSE,FALSE,FALSE,FALSE,FALSE,TRUE,FALSE,TRUE,1,FALSE,0,"unstated","2","reason","reason","unstated","unstated","2","reason","reason",FALSE
885,"control","16876.099999999977","debriefing_form.html","external-html",27,216157,"0.0-7.0","5680452cc5767f00121cc81a","618cb36d8ffd4c01e0afa098","618c128dfba7721f72bf2b15",NA,"he3dyagt0uputat","58",1,1161.20000000001,1,8963.5,8,16058.3,"Heinz","control","3","7590.399999999965",1,0,0,5,0,1,0,0,0,0,0,0,0,2,17927.8,1,0,0,"3","5108",1,0,0,6,"No","""","""","""","""","""",NA,NA,NA,NA,NA,NA,"The profit should reasonabley cover the development costs and also allow reasonable profits. More than this is a form of extortion.",NA,NA,1,1,1,"wrong","wrong","It's wrong and I can provide a valid reason.","wrong","not wrong","wrong","wrong","wrong","wrong",TRUE,TRUE,FALSE,FALSE,FALSE,FALSE,FALSE,FALSE,0,TRUE,2,"unstated","reason","reason","reason","reason","unstated","reason","reason","reason",TRUE
754,"control","42680.89999997616","debriefing_form.html","external-html",27,334895,"0.0-7.0","568a9909316b10000c50ae46","618c739f050046d94fcde1c4","618c128dfba7721f72bf2b1b",NA,"8vwb5d8pfsyuace","71",0,1897.20000004768,1,12437.3999999762,8,21958.6999999881,"Jennifer","control","1","6991.399999976158",1,0,0,7,1,0,0,0,0,0,0,0,0,2,7616.5,1,0,0,"1","5146.800000011921",1,0,0,7,"No","""","""","""","""","""",NA,NA,NA,NA,NA,NA,"The donor left his body for medical research, not to be cut up and cooked. If his family discovered what had happened, they would be devastated.",NA,NA,1,1,1,"wrong","wrong","It's wrong and I can provide a valid reason.","wrong","wrong","wrong","wrong","wrong","wrong",FALSE,FALSE,FALSE,FALSE,FALSE,FALSE,FALSE,FALSE,0,FALSE,0,"unstated","reason","reason","reason","reason","unstated","reason","reason","reason",TRUE
54,"control","35426.69999998808","debriefing_form.html","external-html",27,235414,"0.0-7.0","5697cad57183b800060fbfa6","618c2baa64cf786ffbae3f78","618c128dfba7721f72bf2b33",NA,"bawxt2xavzfv226","38",0,1325,1,14633.3000000119,8,32007.7999999523,"Trolley","control","6","10098.299999952316",1,0,0,5,0,1,0,0,1,0,0,1,0,2,13880.6000000238,1,0,0,"6","3564",1,0,0,5,"yes","""","""","""","""","""",NA,NA,NA,NA,NA,NA,"Although morally it is the right things as it is for the greater good, one person dies instead of five, in reality it would be almost impossible to make that decision",NA,NA,1,1,1,"right","right","It's wrong and I can provide a valid reason.","not wrong","not wrong","not wrong","not wrong","wrong","not wrong",FALSE,FALSE,FALSE,TRUE,TRUE,FALSE,FALSE,FALSE,0,TRUE,2,"unstated","reason","reason","reason","reason","unstated","reason","reason","reason",TRUE
172,"cog_load","8689.699999988079","""","survey-text",53,428610,"0.0-6.0","56a93b0a402025000bd62f17","618c39a898325400bcd3265b","618c128dfba7721f72bf2b1b",NA,"x01dg1wsmf7xxgf","59",0,3542.39999997616,1,14452.7000000477,8,28767.1000000238,"Jennifer","cog_load","1","8575.900000035763",1,0,0,5,0,0,1,0,1,1,0,0,1,2,13753.8999999762,1,0,0,"1","9401.399999976158",1,0,0,5,"no","{""Q0"":""no""}","""","""","""","""",2,1,0,0,"1","4","4","1",1,1,1,1,"wrong","wrong","It's wrong and I can provide a valid reason.","wrong","wrong","not wrong","wrong","wrong","wrong",FALSE,TRUE,TRUE,FALSE,FALSE,FALSE,FALSE,FALSE,0,TRUE,2,"unstated","no reason","no reason","no reason","reason","unstated","no reason","no reason","no reason",FALSE
989,"cog_load","8296.919999993406","debriefing_form.html","external-html",54,317429,"0.0-7.0","56cdc47f52789e0005404e34","618d9221a050f9619434ecae","618d7b245d63c4043bcefa05",NA,"eykan9o08qooz8r","40",0,1170.15999997966,1,7925.69000000367,2,1990.71500002174,"Incest","cog_load","1","6268.544999998994",1,0,0,7,0,0,0,1,0,0,0,0,0,2,4760.9999999986,1,0,0,"1","4650.885000010021",1,0,0,7,"Yes in a TV programme","""","""","""","""","""",2,1,0,0,"0","0","They should know that it is illegal and should have exercised self-control","0",1,1,1,1,"wrong","wrong","It's wrong and I can provide a valid reason.","wrong","wrong","wrong","wrong","wrong","wrong",FALSE,FALSE,FALSE,FALSE,FALSE,FALSE,FALSE,FALSE,0,FALSE,0,"unstated","reason","reason","reason","reason","unstated","reason","reason","reason",TRUE
625,"cog_load","12962","debriefing_form.html","external-html",53,222091,"0.0-7.0","57019bd1917228000e8d4fd1","618c58cb23497d2590ac5422","618c128dfba7721f72bf2b29",NA,"awqyskn8oyl2e4t","34",1,1192,4,9794,8,8847,"Jennifer","cog_load","4","14443",1,0,0,2,0,0,0,0,0,0,1,0,0,1,18842,1,0,0,"1","9430",1,0,0,2,"no","""","""","""","""","""",2,1,0,0,"2","3",NA,"0",1,1,1,1,"neutral","wrong","It's wrong but I can't think of a reason.","not wrong","wrong","wrong","wrong","wrong","wrong",TRUE,FALSE,FALSE,FALSE,FALSE,FALSE,FALSE,FALSE,0,TRUE,1,"unstated","reason","reason","reason","no reason","unstated","reason","reason","reason",TRUE
845,"control","53903.700000000186","debriefing_form.html","external-html",27,822809,"0.0-7.0","5702c03e68c641000e0d754d","618ca29a60dfa25398a335a3","618c128dfba7721f72bf2b20",NA,"umccomx6jlr6nkb","50",1,1635,1,36348.5,8,53303.1000000001,"Trolley","control","1","13399.30000000028",1,0,0,7,0,1,0,0,0,0,0,0,0,2,7808.69999999972,1,0,0,"1","5644",1,0,0,7,"Not this specific scenario. I have, however, come across the trolley/lever variant.","""","""","""","""","""",NA,NA,NA,NA,NA,NA,"The five people were already on course to die. The large man that Paul pushed was not. No innocent person should die unwillingly to save the lives of others.",NA,NA,1,1,1,"wrong","wrong","It's wrong and I can provide a valid reason.","wrong","not wrong","wrong","wrong","wrong","wrong",TRUE,TRUE,FALSE,FALSE,FALSE,FALSE,FALSE,FALSE,0,TRUE,2,"unstated","reason","reason","reason","reason","unstated","reason","reason","reason",TRUE
446,"control","59096.5","""","survey-text",26,325443,"0.0-6.0","571b37aa5d40840011c3a04d","618c4b3901ad0d0ce0da761f","618c128dfba7721f72bf2b11",NA,"k9lyd4cfa8g6pmz","57",0,2832.20000000298,1,8768.90000000596,8,19217.200000003,"Trolley","control","4","29053.19999999553",1,0,0,3,0,0,1,0,1,1,0,1,0,2,14259,1,0,0,"4","11099.20000000298",1,0,0,3,"No.","{""Q0"":""Only that I would hope never to be faced with that sort of dilemma ""}","""","""","""","""",NA,NA,NA,NA,NA,NA,"He ""murdered"" a man to save others,.",NA,NA,1,1,1,"neutral","neutral","It's wrong and I can provide a valid reason.","not wrong","wrong","not wrong","not wrong","wrong","not wrong",TRUE,TRUE,FALSE,TRUE,TRUE,FALSE,TRUE,TRUE,1,TRUE,4,"unstated","no reason","no reason","reason","reason","unstated","no reason","no reason","reason",FALSE
940,"control","2087","debriefing_form.html","external-html",27,575677,"0.0-7.0","571de12713b1b70012be47f6","618ced1c4634d19d85ca406c","618c128dfba7721f72bf2b06",NA,"vwq1o9x286p5y3c","66",1,1161,1,14627,8,22819,"Trolley","control","1","15774",1,0,0,1,0,1,0,0,0,0,0,0,0,2,5191,1,0,0,"4","5333",1,0,0,6,"No","""","""","""","""","""",NA,NA,NA,NA,NA,NA,"Those five people, maybe they are all murderers, rapists, paedophiles, maybe they are abusive, domestic violence committers, maybe they are vile people, maybe they are being given the gift of moving on to another potential higher existence, who is this one person to decide, just because he would feel GUILTY, does not mean it is morally right, that is the IGNORANCE and audacity of human nature, it is his SELFISHNESS his NEED to prove and not be villified by the IGNORANCE of culture that causes him to act. This is words, concepts, language, it is not truth. Morality, the WORD is NOT the thing.",NA,NA,1,1,1,"wrong","neutral","It's wrong and I can provide a valid reason.","wrong","not wrong","wrong","wrong","wrong","not wrong",TRUE,TRUE,FALSE,FALSE,TRUE,FALSE,FALSE,FALSE,0,TRUE,3,"unstated","reason","reason","reason","reason","unstated","reason","reason","reason",TRUE
64,"control","7695.79999999702","debriefing_form.html","external-html",27,233541,"0.0-7.0","572897d52865c40008423b21","618c2d1d3901cf759ebac923","618c128dfba7721f72bf2b33",NA,"6w9jtstaf2chgo2","38",0,1512.5,4,10222.0999999978,8,12944.5,"Trolley","control","1","3858.400000002235",1,0,0,7,0,0,0,0,1,0,0,0,0,2,5735.10000000149,1,0,0,"1","4621.300000000745",1,0,0,7,"No","""","""","""","""","""",NA,NA,NA,NA,NA,NA,"Even though Paul has saved the lives of five, he has single-handedly caused the death of one. By not intervening, he would not have broken the law. By intervening, he has broken the law and committed murder.",NA,NA,1,1,1,"wrong","wrong","It's wrong and I can provide a valid reason.","wrong","wrong","not wrong","wrong","wrong","wrong",FALSE,TRUE,TRUE,FALSE,FALSE,FALSE,FALSE,FALSE,0,TRUE,2,"unstated","reason","reason","reason","reason","unstated","reason","reason","reason",TRUE
280,"control","5182.5999999940395","""","survey-text",25,252942,"0.0-6.0","572bac993437df0008444fba","618c410d91b1733eea1f2e3c","618c128dfba7721f72bf2b33",NA,"gxx383zh182yx4a","41",0,12462.900000006,4,69935.1000000238,8,30072.5,"Incest","control","1","6471.5999999940395",1,0,0,7,1,0,2,0,0,0,1,0,0,1,8297.5,1,0,0,"1","4928.199999988079",1,0,0,7,"No","{""Q0"":""No""}","""","""","""","""",NA,NA,NA,NA,NA,NA,NA,NA,NA,1,1,1,"wrong","wrong","It's wrong but I can't think of a reason.","wrong","wrong","wrong","wrong","wrong","wrong",FALSE,FALSE,FALSE,FALSE,FALSE,TRUE,FALSE,TRUE,1,FALSE,0,"unstated","2","reason","reason","no reason","unstated","2","reason","reason",FALSE
337,"control","3969.899999976158","""","survey-text",26,259291,"0.0-6.0","573f47d250f5e6000dcc47f8","618c444204d8a7bd442198da","618c128dfba7721f72bf2b11",NA,"y8wknofxa5r15x5","50",0,1937.5,1,26596.599999994,8,33356.6999999881,"Jennifer","control","1","3434.2999999821186",1,0,0,7,0,0,0,0,0,0,0,0,0,2,7194.09999999404,1,0,0,"1","6183.5",1,0,0,7,"No","{""Q0"":""No""}","""","""","""","""",NA,NA,NA,NA,NA,NA,"The person only consented for their body to be used for scientific purposes, not to be eaten.",NA,NA,1,1,1,"wrong","wrong","It's wrong and I can provide a valid reason.","wrong","wrong","wrong","wrong","wrong","wrong",FALSE,FALSE,FALSE,FALSE,FALSE,FALSE,FALSE,FALSE,0,FALSE,0,"unstated","reason","reason","reason","reason","unstated","reason","reason","reason",TRUE
683,"cog_load","2669.0999999940395","""","survey-text",60,428034,"0.0-6.0","5742796172b4fb00070a3309","618c61d94488621183d6f341","618c128dfba7721f72bf2b28",NA,"z2fu169p6084xmc","5742796172b4fb00070a3309",1,1474.5,1,13684.8999999762,8,36494.099999994,"Heinz","cog_load","2","11668",0,2,0,5,0,1,0,0,0,0,0,0,0,2,12810.400000006,1,0,0,"3","11774.5",1,0,0,5,"No","{""Q0"":""No""}","""","""","""","""",1,1,0,0,"1","3","Heinz was in a desperate situation so he could have shown a bit of empathy towards him","1",1,2,1,1,"wrong","wrong","It's wrong and I can provide a valid reason.","wrong","not wrong","wrong","wrong","wrong","wrong",TRUE,TRUE,FALSE,FALSE,FALSE,FALSE,FALSE,FALSE,0,TRUE,2,"unstated","reason","reason","reason","reason","unstated","reason","reason","reason",TRUE
791,"control","5190.600000023842","debriefing_form.html","external-html",27,541306,"0.0-7.0","5747ac9d5bef980010b0414b","618c882ef5cdb5d546a6248a","618c128dfba7721f72bf2b20",NA,"47wxf1qpl76kr20","51",1,1477.20000004768,1,16102.3999999762,8,282069.5,"Trolley","control","2","8756",1,0,0,6,0,1,2,0,0,1,0,0,1,2,14622.7000000477,1,0,0,"2","3710.7999999523163",1,0,0,6,"no","""","""","""","""","""",NA,NA,NA,NA,NA,NA,"He is killing someone from pushing him over bridge to stop fate from killing the other 5 people and is now a murderer",NA,NA,1,1,1,"wrong","wrong","It's wrong and I can provide a valid reason.","wrong","not wrong","wrong","wrong","wrong","wrong",TRUE,TRUE,FALSE,FALSE,FALSE,TRUE,FALSE,TRUE,1,TRUE,2,"unstated","2","no reason","no reason","reason","unstated","2","no reason","no reason",FALSE
920,"control","26110","debriefing_form.html","external-html",27,291577,"0.0-7.0","574c71865bef980010b0e35d","618cbd33fb12f27a4358af82","618c128dfba7721f72bf2b15",NA,"nxc0dr3cxecb81m","61",1,2189.80000001192,1,36367.5,8,30511.1000000238,"Jennifer","control","1","12110.40000000596",1,0,0,7,0,0,0,0,0,0,0,0,0,2,6247.30000001192,1,0,0,"1","4726.299999982119",1,0,0,7,"No","""","""","""","""","""",NA,NA,NA,NA,NA,NA,"The person consented to being used for medical research, but not as food",NA,NA,1,1,1,"wrong","wrong","It's wrong and I can provide a valid reason.","wrong","wrong","wrong","wrong","wrong","wrong",FALSE,FALSE,FALSE,FALSE,FALSE,FALSE,FALSE,FALSE,0,FALSE,0,"unstated","reason","reason","reason","reason","unstated","reason","reason","reason",TRUE
182,"cog_load","3898","""","survey-text",53,236723,"0.0-6.0","576e5f28c7af4700018172a1","618c3a63cc2ac4f8f671422c","618c128dfba7721f72bf2b33",NA,"8shzvrhnn3e78pw","46",0,1762,1,6415,8,21589,"Jennifer","cog_load","1","6311",1,0,0,7,1,0,0,0,0,0,0,0,0,2,6082,1,0,0,"1","3698",1,0,0,7,"No and I think it’s horrific!","{""Q0"":""no""}","""","""","""","""",1,1,0,0,"1","2","2","1",1,1,1,1,"wrong","wrong","It's wrong and I can provide a valid reason.","wrong","wrong","wrong","wrong","wrong","wrong",FALSE,FALSE,FALSE,FALSE,FALSE,FALSE,FALSE,FALSE,0,FALSE,0,"unstated","reason","reason","reason","reason","unstated","reason","reason","reason",TRUE
678,"cog_load","5795","""","survey-text",52,673415,"0.0-6.0","577a1ba12ed4a60001ad55dc","618c60c2704f51f71c9a2010","618c128dfba7721f72bf2b15",NA,"nlkwvcqn66ym7ko","60",1,1724,1,22455,8,45418,"Heinz","cog_load","6","17599",1,0,0,6,0,1,0,0,0,0,0,0,0,0,8992,1,0,0,"7","9345",1,0,0,6,"No","{""Q0"":""No""}","""","""","""","""",2,1,0,0,"2","2",NA,"1",1,1,1,1,"right","right","There is nothing wrong.","not wrong","not wrong","wrong","wrong","not wrong","not wrong",FALSE,TRUE,FALSE,TRUE,FALSE,FALSE,FALSE,FALSE,0,TRUE,2,"unstated","reason","reason","reason","unstated","unstated","reason","reason","reason",TRUE
76,"control","3079","""","survey-text",25,134640,"0.0-6.0","577bfa3c9fecfe0001a5bcbf","618c2f437600dd7a73a2b9a7","618c128dfba7721f72bf2b34",NA,"qoxhjj1zdlskm2x","35",0,1435,4,14776,8,21609,"Trolley","control","6","6379",1,0,0,7,0,0,1,0,1,1,0,1,1,0,9161,1,0,0,"7","4840",1,0,0,7,"No","{""Q0"":""No""}","""","""","""","""",NA,NA,NA,NA,NA,NA,NA,NA,NA,1,1,1,"right","right","There is nothing wrong.","not wrong","wrong","not wrong","not wrong","not wrong","not wrong",TRUE,TRUE,FALSE,FALSE,FALSE,FALSE,FALSE,FALSE,0,TRUE,2,"unstated","no reason","no reason","no reason","unstated","unstated","no reason","no reason","no reason",FALSE
226,"cog_load","27245.299999952316","""","survey-text",52,274386,"0.0-6.0","5799d08d454e5400015f463c","618c3d1177f8e1dabedefb96","618c128dfba7721f72bf2b25",NA,"ejdu8eg0hntf9xw","37",1,1317.79999995232,1,13828.3000000119,8,28753.8999999762,"Trolley","cog_load","3","15576.300000011921",1,0,0,3,0,1,0,0,1,0,0,1,0,0,3368,1,0,0,"3","3244.199999988079",1,0,0,5,"Yes. It was on an episode of the Good Place","{""Q0"":""Yes. This study confused me quite a bit.""}","""","""","""","""",1,1,0,0,"0","0",NA,"1",1,1,1,1,"wrong","wrong","There is nothing wrong.","wrong","not wrong","not wrong","not wrong","not wrong","wrong",TRUE,FALSE,FALSE,FALSE,TRUE,FALSE,FALSE,FALSE,0,TRUE,2,"unstated","reason","reason","reason","unstated","unstated","reason","reason","reason",TRUE
613,"cog_load","6060.800000011921","""","survey-text",73,329528,"0.0-6.0","57b53ad8a18afd00013e0565","618c57da57a2885c5da8277a","618c128dfba7721f72bf2b28",NA,"64wzfq7jzcqwgdw","46",1,2618.10000002384,1,10198.3999999762,8,7244.09999996424,"Incest","cog_load","1","11755",0,2,0,1,0,1,1,0,1,1,0,1,1,0,8303.80000001192,1,0,0,"1","3855.5",0,0,3,1,"NO","{""Q0"":""NO""}","""","""","""","""",1,0,2,0,"1","2",NA,"3",2,2,1,3,"wrong","wrong","There is nothing wrong.","wrong","not wrong","not wrong","not wrong","not wrong","wrong",TRUE,FALSE,FALSE,FALSE,TRUE,FALSE,FALSE,FALSE,0,TRUE,2,"unstated","no reason","no reason","no reason","unstated","unstated","no reason","no reason","no reason",FALSE
296,"control","3730","""","survey-text",25,158398,"0.0-6.0","57bc1180d50f410001e16ee9","618c425d0b6349a23f3a5b91","618c128dfba7721f72bf2b25",NA,"a54orc1ja4mccrg","33",1,1578,1,8003,8,22942,"Heinz","control","5","15617",1,0,0,5,0,0,0,0,0,0,0,0,0,0,14421,1,0,0,"5","4337",1,0,0,6,"No","{""Q0"":""No""}","""","""","""","""",NA,NA,NA,NA,NA,NA,NA,NA,NA,1,1,1,"right","right","There is nothing wrong.","not wrong","wrong","wrong","wrong","not wrong","not wrong",TRUE,FALSE,FALSE,TRUE,FALSE,FALSE,FALSE,FALSE,0,TRUE,2,"unstated","reason","reason","reason","unstated","unstated","reason","reason","reason",TRUE
109,"cog_load","10660.299999999552","debriefing_form.html","external-html",54,198906,"0.0-7.0","57c21d045b8c510001af59e1","618c32f24780d014e3ab4d38","618c128dfba7721f72bf2b28",NA,"qoofvnxowwu10wx","48",1,2380.99999999758,1,12016.1999999982,8,18386.7000000027,"Trolley","cog_load","2","4895.800000002055",1,0,0,5,0,0,0,0,0,0,0,0,0,2,3985.19999999917,1,0,0,"2","3250.800000001618",1,0,0,5,"No","""","""","""","""","""",1,1,0,0,"1","1","1","1",1,1,1,1,"wrong","wrong","It's wrong and I can provide a valid reason.","wrong","wrong","wrong","wrong","wrong","wrong",FALSE,FALSE,FALSE,FALSE,FALSE,FALSE,FALSE,FALSE,0,FALSE,0,"unstated","reason","reason","reason","reason","unstated","reason","reason","reason",TRUE
688,"control","38452.60000000149","debriefing_form.html","external-html",27,546557,"0.0-7.0","57d0db6cf7bcd90001cd47bc","618c627dfbc8dfacdcb1c4a6","618c128dfba7721f72bf2b28",NA,"mz0eejl38f4dbuv","47",1,1358.79999999702,1,24593.700000003,8,20719.5,"Jennifer","control","1","6605.30000000447",1,0,0,7,0,0,0,0,0,0,0,0,0,2,6293.5,1,0,0,"1","4107.9000000059605",1,0,0,7,"No","""","""","""","""","""",NA,NA,NA,NA,NA,NA,"It's disrespectful,unnatural behaviour.",NA,NA,1,1,1,"wrong","wrong","It's wrong and I can provide a valid reason.","wrong","wrong","wrong","wrong","wrong","wrong",FALSE,FALSE,FALSE,FALSE,FALSE,FALSE,FALSE,FALSE,0,FALSE,0,"unstated","reason","reason","reason","reason","unstated","reason","reason","reason",TRUE
253,"control","4844.329999999958","""","survey-text",25,148364,"0.0-6.0","57dd95abccd0230001fc224b","618c3f3d32b0415a45a9a74c","618c128dfba7721f72bf2b33",NA,"eubmtkfscc8hjn4","38",0,1216.89499999997,1,16185.375,8,25818.3049999999,"Trolley","control","3","6779.27499999998",1,0,0,6,0,0,2,0,1,2,0,1,2,1,7564.74500000002,1,0,0,"5","4324.874999999971",1,0,0,5,"no","{""Q0"":""no""}","""","""","""","""",NA,NA,NA,NA,NA,NA,NA,NA,NA,1,1,1,"wrong","right","It's wrong but I can't think of a reason.","wrong","wrong","not wrong","not wrong","wrong","not wrong",FALSE,TRUE,FALSE,TRUE,TRUE,FALSE,FALSE,FALSE,0,TRUE,3,"unstated","2","2","2","no reason","unstated","2","2","2",FALSE
936,"control","25401.600000000093","debriefing_form.html","external-html",27,389249,"0.0-7.0","57de9b670cb6700001dd7c9f","618cd7daa38f2cb790b1c32e","618c128dfba7721f72bf2b17",NA,"s2x5fuo5h6oqzgg","63",0,1662.40000000002,1,11758.8999999999,8,28925.5,"Jennifer","control","1","8922.29999999993",1,0,0,7,0,0,0,0,0,0,0,0,0,2,8286,1,0,0,"1","5990.599999999977",1,0,0,7,"No I haven't and I hope I never have to.","""","""","""","""","""",NA,NA,NA,NA,NA,NA,"Humans should never become cannibals. Resorting to eating another human is basically inhuman. It is also against my religion - the body is a temple. It is holy - even in death.",NA,NA,1,1,1,"wrong","wrong","It's wrong and I can provide a valid reason.","wrong","wrong","wrong","wrong","wrong","wrong",FALSE,FALSE,FALSE,FALSE,FALSE,FALSE,FALSE,FALSE,0,FALSE,0,"unstated","reason","reason","reason","reason","unstated","reason","reason","reason",TRUE
544,"cog_load","3223.400000035763","debriefing_form.html","external-html",67,334474,"0.0-7.0","57e825b9a4e40600014ea590","618c52c13cfef7d17d73d6c4","618c128dfba7721f72bf2b20",NA,"cz33j8sxtkbs1jq","56",1,1939.40000003576,1,16301.3999999762,6,14644.6000000238,"Trolley","cog_load","2","11782",1,0,0,5,0,0,2,0,0,1,1,0,2,1,9966,1,0,0,"5","4319.400000035763",0,0,3,5,"no","""","""","""","""","""",1,0,2,0,"1","1",NA,"1",2,1,1,3,"wrong","right","It's wrong but I can't think of a reason.","wrong","wrong","wrong","wrong","wrong","not wrong",FALSE,FALSE,FALSE,FALSE,TRUE,TRUE,TRUE,TRUE,2,TRUE,1,"unstated","2","no reason","2","no reason","unstated","2","no reason","2",FALSE
431,"cog_load","3652.000000000058","""","survey-text",52,296891,"0.0-6.0","57ef6bed5d40960001373517","618c49dc844923e42803a881","618c128dfba7721f72bf2b11",NA,"yk1r059ctesbpx6","57",0,1982,4,12953,8,26656,"Incest","cog_load","1","16045",1,0,0,6,0,0,0,0,0,0,0,0,2,1,9072,1,0,0,"1","8473",1,0,0,6,"No","{""Q0"":""no""}","""","""","""","""",2,1,0,0,"1","2",NA,"1",1,1,1,1,"wrong","wrong","It's wrong but I can't think of a reason.","wrong","wrong","wrong","wrong","wrong","wrong",FALSE,FALSE,FALSE,FALSE,FALSE,FALSE,TRUE,TRUE,1,FALSE,0,"unstated","reason","reason","2","no reason","unstated","reason","reason","2",FALSE
872,"control","7251.5","""","survey-text",25,287364,"0.0-6.0","58106d17a513590001b1ec9e","618cac4f206fb590a0cc37ca","618c128dfba7721f72bf2b15",NA,"mbrooekxumygala","62",1,1822.29999995232,1,19715.3999999762,8,44742.3999999762,"Jennifer","control","1","7909.5",1,0,0,7,0,1,0,0,1,2,0,0,0,1,19799.3999999762,1,0,0,"1","8225.800000071526",1,0,0,7,"No","{""Q0"":""No""}","""","""","""","""",NA,NA,NA,NA,NA,NA,NA,NA,NA,1,1,1,"wrong","wrong","It's wrong but I can't think of a reason.","wrong","not wrong","not wrong","wrong","wrong","wrong",TRUE,FALSE,TRUE,FALSE,FALSE,TRUE,TRUE,TRUE,2,TRUE,2,"unstated","reason","2","reason","no reason","unstated","reason","2","reason",FALSE
227,"control","4318","""","html-slider-response",24,296848,"0.0-4.0-3.0-7.0","581f12420fe4d60001a5511a","618c3d6bc879b504d8313f84","618c128dfba7721f72bf2b1b",NA,"28f93hckds01uxz","67",0,2389,4,27676,4,22207,"Heinz","control","3","18934.99999999997",1,0,0,5,0,1,0,0,1,0,0,1,0,2,3985.99999999997,1,0,0,"4","15301",1,0,0,5,NA,"""","<p>How confident are you about your judgement?</p><p>(1 = Not at all Confident; 7 = Extremely Confident)</p>","""","""","5",NA,NA,NA,NA,NA,NA,"Life is precious. The loss could be made up on other sales or in some other way",NA,NA,1,1,1,"wrong","neutral","It's wrong and I can provide a valid reason.","wrong","not wrong","not wrong","not wrong","wrong","not wrong",TRUE,FALSE,FALSE,TRUE,TRUE,FALSE,FALSE,FALSE,0,TRUE,3,"unstated","reason","reason","reason","reason","unstated","reason","reason","reason",TRUE
341,"cog_load","4168.10000000149","""","survey-text",60,393577,"0.0-6.0","5821198a8b13670001ea8048","618c4484f7d81c8b923c1460","618c128dfba7721f72bf2b1b",NA,"rxjhgka67g7k13b","60",0,1866.09999999404,1,14486.3999999985,8,23287.5,"Incest","cog_load","1","6578.10000000149",1,0,0,7,0,0,0,0,0,0,0,0,0,2,8509.5,1,0,0,"1","8867.5",1,0,0,6,"no","{""Q0"":""no""}","""","""","""","""",0,0,2,0,"1","1","they are brother and sister","0",2,1,1,1,"wrong","wrong","It's wrong and I can provide a valid reason.","wrong","wrong","wrong","wrong","wrong","wrong",FALSE,FALSE,FALSE,FALSE,FALSE,FALSE,FALSE,FALSE,0,FALSE,0,"unstated","reason","reason","reason","reason","unstated","reason","reason","reason",TRUE
876,"control","4001.300000000745","""","survey-text",26,144686,"0.0-6.0","5836f2421bf4040001eb6a36","618cae08861b3846418fe589","618c128dfba7721f72bf2b15",NA,"ha7hxxu66hz6mcu","58",1,852.400000002235,4,5333.89999999851,8,17394.1999999993,"Heinz","control","4","17212.70000000298",1,0,0,5,0,1,0,0,0,0,0,0,0,2,14219.3999999985,1,0,0,"4","5673.89999999851",1,0,0,5,"no","{""Q0"":""no""}","""","""","""","""",NA,NA,NA,NA,NA,NA,"We all have a right to work and to earn a living",NA,NA,1,1,1,"neutral","neutral","It's wrong and I can provide a valid reason.","not wrong","not wrong","wrong","wrong","wrong","not wrong",FALSE,TRUE,FALSE,FALSE,TRUE,FALSE,FALSE,FALSE,0,TRUE,2,"unstated","reason","reason","reason","reason","unstated","reason","reason","reason",TRUE
278,"control","9789","debriefing_form.html","external-html",27,257503,"0.0-7.0","583730c8b647c40001043cbf","618c4100d37ae7c26ccba934","618c128dfba7721f72bf2b15",NA,"wfl9zp54poy10to","67",1,1615.10000002384,1,11341.8999999762,8,32502.8999999762,"Incest","control","1","11970.200000047684",1,0,0,7,0,0,0,0,0,0,0,0,0,2,7469.40000009537,1,0,0,"1","8415.5",1,0,0,7,"no","""","""","""","""","""",NA,NA,NA,NA,NA,NA,"It crosses an accepted moral line - it will also change their relationship",NA,NA,1,1,1,"wrong","wrong","It's wrong and I can provide a valid reason.","wrong","wrong","wrong","wrong","wrong","wrong",FALSE,FALSE,FALSE,FALSE,FALSE,FALSE,FALSE,FALSE,0,FALSE,0,"unstated","reason","reason","reason","reason","unstated","reason","reason","reason",TRUE
239,NA,"17357","""","html-button-response",4,35476,"0.0-3.0","5839a4d4fe62f500016695f1","618c3e0bec36e95a4be631c3","618c128dfba7721f72bf2b28",NA,"jkzjz8doq2k8toc","40",1,1271,2,17357,NA,NA,NA,NA,NA,NA,NA,NA,NA,NA,NA,NA,NA,NA,NA,NA,NA,NA,NA,NA,NA,NA,NA,NA,NA,NA,NA,NA,NA,NA,NA,"""","<img src=""img/attention2.png""><br>","2",NA,NA,NA,NA,NA,NA,NA,NA,NA,NA,NA,NA,NA,NA,NA,NA,NA,NA,NA,NA,NA,NA,NA,NA,NA,NA,NA,NA,NA,NA,NA,NA,NA,NA,"unstated",NA,NA,NA,NA,"unstated",NA,NA,NA,NA
835,"control","4704.500000021653","debriefing_form.html","external-html",27,332609,"0.0-7.0","585bd8635f93120001516c05","618c9fcfb336941f2ef2c4c2","618c128dfba7721f72bf2b1b",NA,"7q95tchdj3mry66","58",0,1883.60000000102,1,18751.3999999792,8,39500.2000000095,"Incest","control","2","5310.100000002421",1,0,0,6,0,0,0,0,0,0,0,0,0,2,5875.90000001364,1,0,0,"2","6686.900000000605",1,0,0,6,"No","""","""","""","""","""",NA,NA,NA,NA,NA,NA,"They will have a sibling relationship for the rest of their lives and this will always be a memory for them which will cause anxiety for them and definitely have an impact on them mentally",NA,NA,1,1,1,"wrong","wrong","It's wrong and I can provide a valid reason.","wrong","wrong","wrong","wrong","wrong","wrong",FALSE,FALSE,FALSE,FALSE,FALSE,FALSE,FALSE,FALSE,0,FALSE,0,"unstated","reason","reason","reason","reason","unstated","reason","reason","reason",TRUE
417,"control","20105.19999998808","debriefing_form.html","external-html",27,195514,"0.0-7.0","586a93cfde1cea0001f79e4b","618c4905666198cf672c1261","618c128dfba7721f72bf2b29",NA,"jzdkxx3ns0aphz5","34",1,1279.29999999702,1,16002.3000000119,8,24770.5,"Jennifer","control","1","5346",1,0,0,7,1,0,0,0,0,0,0,0,0,2,4613.5,1,0,0,"1","2934.6000000089407",1,0,0,7,"no","""","""","""","""","""",NA,NA,NA,NA,NA,NA,"The body had been donated for research and not for eating. Also she is a Vegan",NA,NA,1,1,1,"wrong","wrong","It's wrong and I can provide a valid reason.","wrong","wrong","wrong","wrong","wrong","wrong",FALSE,FALSE,FALSE,FALSE,FALSE,FALSE,FALSE,FALSE,0,FALSE,0,"unstated","reason","reason","reason","reason","unstated","reason","reason","reason",TRUE
1111,"cog_load","11390.300000071526","""","survey-text",53,483779,"0.0-6.0","58702cb15c17910001ea4bb3","618dad50d55b20022285748f","618d7b245d63c4043bcefa04",NA,"qajhfh0zvz540h7","58702cb15c17910001ea4bb3",1,3668.10000002384,1,28732,8,50425.1000000238,"Jennifer","cog_load","2","11114.099999904633",1,0,0,6,0,0,0,0,0,0,0,0,0,2,16439.8999999762,1,0,0,"2","12332.399999976158",1,0,0,6,"No","{""Q0"":""No thank you""}","""","""","""","""",1,1,0,0,"1","3","4","1",1,1,1,1,"wrong","wrong","It's wrong and I can provide a valid reason.","wrong","wrong","wrong","wrong","wrong","wrong",FALSE,FALSE,FALSE,FALSE,FALSE,FALSE,FALSE,FALSE,0,FALSE,0,"unstated","reason","reason","reason","reason","unstated","reason","reason","reason",TRUE
266,"control","15185","debriefing_form.html","external-html",26,187991,"0.0-7.0","5877b2fada731b000104aa74","618c3fd6f86783e53eb7b3a0","618c128dfba7721f72bf2b33",NA,"def9hh6thq2ep97","39",0,1189,1,12631.3999999985,8,25183.700000003,"Trolley","control","2","6725.60000000149",1,0,0,5,0,0,2,0,0,2,0,0,2,1,7876.60000000149,1,0,0,"4","7318.5999999940395",1,0,0,5,"Yes, a version of it is mentioned in an episode of the good place, as the trolley problem.","""","""","""","""","""",NA,NA,NA,NA,NA,NA,NA,NA,NA,1,1,1,"wrong","neutral","It's wrong but I can't think of a reason.","wrong","wrong","wrong","wrong","wrong","not wrong",FALSE,FALSE,FALSE,FALSE,TRUE,FALSE,FALSE,FALSE,0,TRUE,1,"unstated","2","2","2","no reason","unstated","2","2","2",FALSE
440,"cog_load","4128.300000011921","""","survey-text",53,235270,"0.0-6.0","587a40cfd22a5800014c5ad1","618c4ab750636645945b20bb","618c128dfba7721f72bf2b1b",NA,"v1deop36v7a7azf","69",0,1782.19999998808,4,8915.19999998808,8,11067,"Trolley","cog_load","2","12330.900000035763",1,0,0,5,0,0,0,1,1,1,0,0,0,2,10776.7999999523,1,0,0,"2","11808.199999988079",1,0,0,5,"no","{""Q0"":""no""}","""","""","""","""",2,1,0,0,"1","2","His inaction would kill 5 people, his action killed 1 who would not have died.","1",1,1,1,1,"wrong","wrong","It's wrong and I can provide a valid reason.","wrong","wrong","not wrong","wrong","wrong","wrong",FALSE,TRUE,TRUE,FALSE,FALSE,TRUE,TRUE,TRUE,2,TRUE,2,"unstated","reason","no reason","reason","reason","unstated","reason","no reason","reason",FALSE
689,"control","32199.80000001192","debriefing_form.html","external-html",27,249041,"0.0-7.0","587b3ddbac864a0001c9bd27","618c62b5d3cd8f9e792120c7","618c128dfba7721f72bf2b20",NA,"xuwype5o0may8he","48",1,1463,1,10006.099999994,8,36112.2999999821,"Incest","control","1","7527.300000011921",1,0,0,7,0,0,0,1,0,0,1,0,0,2,7578.69999998808,1,0,0,"1","4883.800000011921",1,0,0,7,"No","""","""","""","""","""",NA,NA,NA,NA,NA,NA,"It's morally reprehensible",NA,NA,1,1,1,"wrong","wrong","It's wrong and I can provide a valid reason.","wrong","wrong","wrong","wrong","wrong","wrong",FALSE,FALSE,FALSE,FALSE,FALSE,FALSE,FALSE,FALSE,0,FALSE,0,"unstated","reason","reason","reason","reason","unstated","reason","reason","reason",TRUE
749,"cog_load","null","""","html-keyboard-response",32,215585,"0.0-4.0-1.0-4.0-2.0-0.0-0.0","5891da1e39f3830001767a0c","618c7234be4cfcd661cfb008","618c128dfba7721f72bf2b1b",NA,"s5s2udzadp4kbvf","59",0,1479.40000009537,1,18129.2000000477,8,27905.7000000477,"Heinz","cog_load","null","null",0,2,0,NA,NA,NA,NA,NA,NA,NA,NA,NA,NA,NA,13125.1000001431,NA,NA,NA,NA,NA,NA,NA,NA,NA,NA,"""","""","""","null","""",1,1,0,0,"1",NA,NA,NA,1,2,NA,NA,"null",NA,NA,"null",NA,NA,NA,NA,NA,NA,NA,NA,NA,NA,NA,NA,NA,NA,NA,NA,"unstated",NA,NA,NA,NA,"unstated",NA,NA,NA,NA
476,"cog_load","3083.000000000058","""","survey-text",52,385625,"0.0-6.0","589b9715a7d45800010429b6","618c4d4f7c434db25e400dcd","618c128dfba7721f72bf2b11",NA,"rmodjelb7kvgzcx","48",0,2806,1,10346,8,18608,"Trolley","cog_load","6","10241",1,0,0,5,0,1,0,0,1,0,0,1,0,0,8642,1,0,0,"5","6914",1,0,0,3,"No","{""Q0"":""no""}","""","""","""","""",0,1,0,0,"1","3",NA,"1",1,1,1,1,"right","right","There is nothing wrong.","not wrong","not wrong","not wrong","not wrong","not wrong","not wrong",FALSE,FALSE,FALSE,FALSE,FALSE,FALSE,FALSE,FALSE,0,FALSE,0,"unstated","reason","reason","reason","unstated","unstated","reason","reason","reason",TRUE
677,"control","17001.99999999994","debriefing_form.html","external-html",27,279432,"0.0-7.0","58b74a11211f4500013aa629","618c6087a4ad8e4f260c93f6","618c128dfba7721f72bf2b1b",NA,"ghw3u8wxc0n7pqo","61",0,1754,4,11657,8,31989,"Incest","control","1","8402.999999999985",1,0,0,6,0,0,0,0,0,0,0,0,0,2,11210,1,0,0,"1","4115",1,0,0,6,"No.","""","""","""","""","""",NA,NA,NA,NA,NA,NA,"Extremely strong taboo in almost every culture about sex between siblings.",NA,NA,1,1,1,"wrong","wrong","It's wrong and I can provide a valid reason.","wrong","wrong","wrong","wrong","wrong","wrong",FALSE,FALSE,FALSE,FALSE,FALSE,FALSE,FALSE,FALSE,0,FALSE,0,"unstated","reason","reason","reason","reason","unstated","reason","reason","reason",TRUE
188,"control","2161","debriefing_form.html","external-html",27,267522,"0.0-7.0","58dd6a15ca6dde00017bfd88","618c3ae6208e8789eff39e62","618c128dfba7721f72bf2b33",NA,"nkx4g3c6cw0961g","40",0,2166,1,29917,8,41434,"Incest","control","1","5522",1,0,0,7,0,0,2,1,0,1,0,0,1,2,10557,1,0,0,"1","6341.000000000029",1,0,0,7,"No","""","""","""","""","""",NA,NA,NA,NA,NA,NA,"They are family, it can have a huge affect on the rest of the family as it’s morally wrong.",NA,NA,1,1,1,"wrong","wrong","It's wrong and I can provide a valid reason.","wrong","wrong","wrong","wrong","wrong","wrong",FALSE,FALSE,FALSE,FALSE,FALSE,TRUE,FALSE,TRUE,1,FALSE,0,"unstated","2","no reason","no reason","reason","unstated","2","no reason","no reason",FALSE
428,"control","3816.5","""","survey-text",25,210352,"0.0-6.0","58e8e42f5aa7f900013c570d","618c49b201dd0d3ccc0efe28","618c128dfba7721f72bf2b11",NA,"qhjmhohzswnrxz7","49",0,1579.59999999404,4,18085.2000000179,8,29858.599999994,"Trolley","control","4","10860.90000000596",1,0,0,3,0,1,0,0,1,0,0,1,0,1,9463.89999997616,1,0,0,"4","6164.5999999940395",1,0,0,3,"Yes, was aware of it already but it has also been on programmes like unbreakable Kimmy Schmidt","{""Q0"":""No""}","""","""","""","""",NA,NA,NA,NA,NA,NA,NA,NA,NA,1,1,1,"neutral","neutral","It's wrong but I can't think of a reason.","not wrong","not wrong","not wrong","not wrong","wrong","not wrong",FALSE,FALSE,FALSE,TRUE,TRUE,FALSE,FALSE,FALSE,0,TRUE,2,"unstated","reason","reason","reason","no reason","unstated","reason","reason","reason",TRUE
670,NA,"null","""","html-button-response",6,289186,"0.0-4.0-0.0-0.0-1.0","58ee2d957b2e410001c2e807","618c5fbc6ef2511d7c2ca802","618c128dfba7721f72bf2b1b",NA,"29cvyb8k628h7mp","68",0,3692,4,28064,NA,NA,NA,NA,NA,NA,NA,NA,NA,NA,NA,NA,NA,NA,NA,NA,NA,NA,NA,NA,NA,NA,NA,NA,NA,NA,NA,NA,NA,NA,NA,"""","<p><b>Example</b></p><br><video autoplay muted><source src='video/num_scroll_test7.mp4' type='video/mp4'></video><br><p>[Question text will go here. Click any response to continue]","null",NA,NA,NA,NA,NA,NA,NA,NA,NA,NA,NA,NA,NA,NA,NA,NA,NA,NA,NA,NA,NA,NA,NA,NA,NA,NA,NA,NA,NA,NA,NA,NA,NA,NA,"unstated",NA,NA,NA,NA,"unstated",NA,NA,NA,NA
241,"cog_load","4977.69999999553","""","survey-text",52,330840,"0.0-6.0","58ee60a5c40b7e000109940f","618c3e76a08d397f49ee94aa","618c128dfba7721f72bf2b33",NA,"tpe1b5k1tr8bg54","47",0,2134.30000000447,1,26982.5,8,31842.6999999955,"Heinz","cog_load","3","8623.30000000447",1,0,0,6,0,0,0,0,0,0,0,0,0,1,7604.60000000149,1,0,0,"2","10149.29999999702",1,0,0,6,"No","{""Q0"":""No""}","""","""","""","""",2,1,0,0,"1","2",NA,"1",1,1,1,1,"wrong","wrong","It's wrong but I can't think of a reason.","wrong","wrong","wrong","wrong","wrong","wrong",FALSE,FALSE,FALSE,FALSE,FALSE,FALSE,FALSE,FALSE,0,FALSE,0,"unstated","reason","reason","reason","no reason","unstated","reason","reason","reason",TRUE
813,"cog_load","2918.5","""","survey-text",59,342212,"0.0-6.0","58ee64108cfc5c0001ab05df","618c98693b129ee99362036e","618c128dfba7721f72bf2b1b",NA,"rdzmb0bfyvlbp2y","58",0,1196.39999997616,4,18829.8000000119,0,9271.80000001192,"Trolley","cog_load","5","10803.400000035763",0,2,0,2,0,1,1,0,0,2,0,0,0,1,13042,1,0,0,"3","12972.800000011921",1,0,0,5,"No","{""Q0"":""No""}","""","""","""","""",1,1,0,0,"1","0",NA,"1",1,2,1,1,"right","wrong","It's wrong but I can't think of a reason.","not wrong","not wrong","wrong","wrong","wrong","wrong",FALSE,TRUE,FALSE,FALSE,FALSE,TRUE,TRUE,TRUE,2,TRUE,1,"unstated","no reason","2","reason","no reason","unstated","no reason","2","reason",FALSE
1095,"cog_load","4650.800000190735","""","survey-text",51,146909,"0.0-5.0","58f0a0b7c8b7eb0001878d5e","618da2592c8bd3685ff5da87","618d7b245d63c4043bcefa05",NA,"lov5fbtnsledo3b","32",0,2303.90000009537,4,6072.2999997139,8,3950,"Trolley","cog_load","5","8195.300000190735",1,0,0,3,0,0,2,0,0,2,0,0,2,1,4388.5,1,0,0,"5","11893.400000095367",1,0,0,3,"no","{""Q0"":""no""}","""","""","""","""",1,1,0,0,"0","2",NA,"2",1,1,1,1,"right","right","It's wrong but I can't think of a reason.","not wrong","wrong","wrong","wrong","wrong","not wrong",TRUE,FALSE,FALSE,FALSE,TRUE,FALSE,FALSE,FALSE,0,TRUE,2,"unstated","2","2","2","no reason","unstated","2","2","2",FALSE
17,"cog_load","9944.700000047684","debriefing_form.html","external-html",53,210181,"0.0-7.0","58f0cdbd738cac000116d38c","618c225f347d74fc412de262","618c128dfba7721f72bf2b34",NA,"p74jx5z428dc09l","35",0,1222.39999985695,1,11075.7000000477,8,29907.7000000477,"Trolley","cog_load","5","8507.899999856949",1,0,0,5,0,0,1,1,0,1,0,0,1,1,4603.90000009537,1,0,0,"5","4424.399999856949",1,0,0,5,"no","""","""","""","""","""",0,1,0,0,"1","2",NA,"1",1,1,1,1,"right","right","It's wrong but I can't think of a reason.","not wrong","wrong","wrong","wrong","wrong","not wrong",TRUE,FALSE,FALSE,FALSE,TRUE,FALSE,FALSE,FALSE,0,TRUE,2,"unstated","no reason","no reason","no reason","no reason","unstated","no reason","no reason","no reason",FALSE
28,"control","3509.999999999971","""","survey-text",25,189506,"0.0-6.0","58f34afdc8b7eb0001878fb6","618c263aa31294184ad8d465","618c128dfba7721f72bf2b0e",NA,"nbztko3pr84z5a8","27",0,1491,4,22190,8,14921,"Incest","control","1","5975",1,0,0,7,0,0,2,0,0,2,0,0,2,1,11942,1,0,0,"1","4765",1,0,0,7,"no","{""Q0"":""}","""","""","""","""",NA,NA,NA,NA,NA,NA,NA,NA,NA,1,1,1,"wrong","wrong","It's wrong but I can't think of a reason.","wrong","wrong","wrong","wrong","wrong","wrong",FALSE,FALSE,FALSE,FALSE,FALSE,FALSE,FALSE,FALSE,0,FALSE,0,"unstated","2","2","2","no reason","unstated","2","2","2",FALSE
904,"cog_load","7571","debriefing_form.html","external-html",74,495376,"0.0-7.0","58f4a7947b2e410001c2edde","618cb6722f78a226c3c3d4a8","618c128dfba7721f72bf2b15",NA,"57apze7nxc4u5hl","62",1,1937,1,9284,8,41925,"Incest","cog_load","null","null",0,0,3,4,0,1,2,1,0,0,0,0,0,1,13841,1,0,0,"1","19572",0,0,3,5,"no","""","""","""","""","""",1,1,0,0,"1","3",NA,"3",1,3,1,3,"null","wrong","It's wrong but I can't think of a reason.","null","not wrong","wrong","wrong","wrong","wrong",TRUE,TRUE,FALSE,FALSE,FALSE,TRUE,FALSE,TRUE,1,TRUE,2,"unstated","2","reason","reason","no reason","unstated","2","reason","reason",FALSE
698,NA,"null","""","html-keyboard-response",14,118154,"0.0-4.0-0.0-1.0","58fcd5059dc84a000134e081","618c64c9fce38ee8d967bebb","618c128dfba7721f72bf2b1b",NA,"op0lgl8xv0v21tt","63",0,2110,4,24147,NA,NA,NA,NA,NA,NA,NA,NA,NA,NA,NA,NA,NA,NA,NA,NA,NA,NA,NA,NA,4892,NA,NA,NA,NA,NA,NA,NA,NA,NA,NA,"""","""","""","null",NA,0,1,0,0,"0",NA,NA,NA,1,NA,NA,NA,NA,NA,NA,NA,NA,NA,NA,NA,NA,NA,NA,NA,NA,NA,NA,NA,NA,NA,NA,NA,"unstated",NA,NA,NA,NA,"unstated",NA,NA,NA,NA
5,"cog_load","51400.09999999404","""","survey-text",67,539711,"0.0-6.0","5917b5305dc20500011a997c","618c1d2cb899d954599380fb","618c128dfba7721f72bf2b34",NA,"y3vxxgpcuh02gzu","37",0,1854.69999998808,1,27086,8,46062.3000000119,"Incest","cog_load","3","12544.800000011921",1,0,0,2,0,1,0,0,0,0,0,1,0,2,8983.29999998212,0,2,0,"1","15723.299999982119",1,0,0,2,"No","{""Q0"":""No""}","""","""","""","""",2,0,2,0,"1","1","1","1",2,1,2,1,"wrong","wrong","It's wrong and I can provide a valid reason.","wrong","not wrong","wrong","not wrong","wrong","wrong",TRUE,TRUE,TRUE,TRUE,FALSE,FALSE,FALSE,FALSE,0,TRUE,4,"unstated","reason","reason","reason","reason","unstated","reason","reason","reason",TRUE
1080,"cog_load","25699.00000000006","debriefing_form.html","external-html",53,319052,"0.0-7.0","591dbd72f29c400001137671","618da05f748fa87f472c17eb","618d7b245d63c4043bcefa05",NA,"skoun9s4j7fuegs","40",0,1714.00000000001,4,20539,4,5048,"Trolley","cog_load","2","17773.00000000003",1,0,0,2,0,0,1,0,0,1,0,0,1,1,3337.00000000003,1,0,0,"2","5156",1,0,0,2,"No","""","""","""","""","""",2,1,0,0,"0","0",NA,"0",1,1,1,1,"wrong","wrong","It's wrong but I can't think of a reason.","wrong","wrong","wrong","wrong","wrong","wrong",FALSE,FALSE,FALSE,FALSE,FALSE,FALSE,FALSE,FALSE,0,FALSE,0,"unstated","no reason","no reason","no reason","no reason","unstated","no reason","no reason","no reason",FALSE
334,"control","3968.6000003814697","debriefing_form.html","external-html",27,217853,"0.0-7.0","592adb3ba0c89900019f215e","618c443c6702fbda5b91d4af","618c128dfba7721f72bf2b25",NA,"f8x2s2tlgs6ahm6","29",1,1818.59999990463,4,16423.1999998093,8,48943.4000000954,"Trolley","control","2","3277.5",1,0,0,5,0,1,0,0,1,1,0,1,0,2,8180.60000038147,1,0,0,"3","3689.800000190735",1,0,0,5,"no","""","""","""","""","""",NA,NA,NA,NA,NA,NA,"He was not in danger unless pushed buy someone else",NA,NA,1,1,1,"wrong","wrong","It's wrong and I can provide a valid reason.","wrong","not wrong","not wrong","not wrong","wrong","wrong",TRUE,FALSE,FALSE,TRUE,FALSE,TRUE,TRUE,TRUE,2,TRUE,2,"unstated","reason","no reason","reason","reason","unstated","reason","no reason","reason",FALSE
719,"cog_load","32361.299999952316","debriefing_form.html","external-html",54,406241,"0.0-7.0","593ec9b706c3b80001d681c5","618c68e47cdb95e394553310","618c128dfba7721f72bf2b16",NA,"t15d8ewpbryydu2","50",0,1629.20000004768,4,21454.3999998569,8,30341.2999999523,"Heinz","cog_load","1","13706.300000190735",1,0,0,5,0,0,0,0,1,0,0,0,0,2,9915.39999985695,1,0,0,"1","6234.600000143051",1,0,0,6,"No","""","""","""","""","""",2,1,0,0,"1","3","3","1",1,1,1,1,"wrong","wrong","It's wrong and I can provide a valid reason.","wrong","wrong","not wrong","wrong","wrong","wrong",FALSE,TRUE,TRUE,FALSE,FALSE,FALSE,FALSE,FALSE,0,TRUE,2,"unstated","reason","reason","reason","reason","unstated","reason","reason","reason",TRUE
464,"cog_load","4460.0999999940395","""","survey-text",52,257264,"0.0-6.0","595e783b07ed5e0001cd0a97","618c4c286da8df17414af076","618c128dfba7721f72bf2b11",NA,"6xmwdmcosx12ys7","51",0,1245.30000001192,1,8710.90000000596,8,18871,"Jennifer","cog_load","1","6564",1,0,0,7,0,0,1,0,0,1,0,0,1,1,5039.19999998808,1,0,0,"1","7423.199999988079",1,0,0,7,"no","{""Q0"":""no""}","""","""","""","""",2,1,0,0,"1","2",NA,"1",1,1,1,1,"wrong","wrong","It's wrong but I can't think of a reason.","wrong","wrong","wrong","wrong","wrong","wrong",FALSE,FALSE,FALSE,FALSE,FALSE,FALSE,FALSE,FALSE,0,FALSE,0,"unstated","no reason","no reason","no reason","no reason","unstated","no reason","no reason","no reason",FALSE
837,"control","33006.40000000596","debriefing_form.html","external-html",27,452982,"0.0-7.0","59607e59aba046000124bf07","618ca11dc4a68dbe8ce537f4","618c128dfba7721f72bf2b1b",NA,"nb7p3154e8tsu10","60",0,3214.69999998808,1,16112.599999994,8,29332,"Incest","control","1","14010.59999999404",1,0,0,7,0,0,0,0,0,0,0,0,0,2,8527.60000002384,1,0,0,"1","8543.90000000596",1,0,0,7,"i have heard about it through the media","""","""","""","""","""",NA,NA,NA,NA,NA,NA,"not healthy for future relationships",NA,NA,1,1,1,"wrong","wrong","It's wrong and I can provide a valid reason.","wrong","wrong","wrong","wrong","wrong","wrong",FALSE,FALSE,FALSE,FALSE,FALSE,FALSE,FALSE,FALSE,0,FALSE,0,"unstated","reason","reason","reason","reason","unstated","reason","reason","reason",TRUE
649,NA,"null","""","html-keyboard-response",8,89274,"0.0-4.0-0.0-0.0-3.0-0.0","596214729955ee00015bce36","618c5b8bb75c0f1ffcdef1be","618c128dfba7721f72bf2b28",NA,"sdnf24lkfs42owq","44",1,1709.89999985695,1,8090.70000004768,NA,NA,NA,NA,NA,NA,NA,NA,NA,NA,NA,NA,NA,NA,NA,NA,NA,NA,NA,NA,NA,NA,NA,NA,NA,NA,NA,NA,NA,NA,NA,"""","""","""","null",NA,NA,NA,NA,NA,NA,NA,NA,NA,NA,NA,NA,NA,NA,NA,NA,NA,NA,NA,NA,NA,NA,NA,NA,NA,NA,NA,NA,NA,NA,NA,NA,NA,"unstated",NA,NA,NA,NA,"unstated",NA,NA,NA,NA
307,"control","14285.700000047684","""","survey-text",26,1653644,"0.0-6.0","596386246e30d40001a8c3fc","618c42ad2379c1b0ca761965","618c128dfba7721f72bf2b28",NA,"fb26qhl2uqph4ab","38",1,1824,4,13349.5,8,29149.7000000477,"Trolley","control","1","586570",1,0,0,7,0,1,0,0,1,0,0,0,0,2,3902.89999985695,1,0,0,"1","7910.600000143051",1,0,0,6,"no","{""Q0"":""Very interesting and thought-provoking""}","""","""","""","""",NA,NA,NA,NA,NA,NA,"I think it's very sad that five people are going to die but I don't believe that it's Paul's place to decide who lives and who dies. When the five people die, it will be because of the sad circumstances that happened with the train. If Paul intervenes and pushes the man, Paul will have caused the death. He is not God, he is not the government or someone granted the permission to decide who lives and who dies. He is one man with no right to make that decision. Every human is valuable and the man that was pushed had the same right to live as the others. If he had volunteered himself, that would have been a different matter.",NA,NA,1,1,1,"wrong","wrong","It's wrong and I can provide a valid reason.","wrong","not wrong","not wrong","wrong","wrong","wrong",TRUE,FALSE,TRUE,FALSE,FALSE,FALSE,FALSE,FALSE,0,TRUE,2,"unstated","reason","reason","reason","reason","unstated","reason","reason","reason",TRUE
1076,"cog_load","1923.9000000953674","debriefing_form.html","external-html",68,351464,"0.0-7.0","5963e3c2135b5e0001929995","618d9faa62adf0d9b2778396","618d7b245d63c4043bcefa04",NA,"w0myul2aapbqb9o","32",1,984.60000038147,1,16624.1999998093,8,24195.2999997139,"Jennifer","cog_load","1","3148.699999809265",0,2,0,7,0,0,0,0,0,0,0,0,0,2,10499.3000001907,1,0,0,"1","3700.0999999046326",1,0,0,7,"no","""","""","""","""","""",2,0,2,0,"1","3","The body was donated to Science to help with research. It was not donated for human consumption and the family of the deceased have a right for the body to be cremated properly.","0",2,2,1,1,"wrong","wrong","It's wrong and I can provide a valid reason.","wrong","wrong","wrong","wrong","wrong","wrong",FALSE,FALSE,FALSE,FALSE,FALSE,FALSE,FALSE,FALSE,0,FALSE,0,"unstated","reason","reason","reason","reason","unstated","reason","reason","reason",TRUE
555,"control","6431","debriefing_form.html","external-html",26,141068,"0.0-7.0","5964f6f6a670a100019423e3","618c538c55967908fca70f5c","618c128dfba7721f72bf2b11",NA,"roqvdnx7ma6rgwt","51",0,1467,1,12167,8,10687,"Jennifer","control","1","6387",1,0,0,7,0,0,2,0,0,2,1,0,2,1,6021.99999999999,1,0,0,"1","4380",1,0,0,7,"no","""","""","""","""","""",NA,NA,NA,NA,NA,NA,NA,NA,NA,1,1,1,"wrong","wrong","It's wrong but I can't think of a reason.","wrong","wrong","wrong","wrong","wrong","wrong",FALSE,FALSE,FALSE,FALSE,FALSE,FALSE,FALSE,FALSE,0,FALSE,0,"unstated","2","2","2","no reason","unstated","2","2","2",FALSE
379,"cog_load","44226.10000000009","debriefing_form.html","external-html",61,381458,"0.0-7.0","5967cb5fdfb5120001605e5c","618c468751262c3fba45f666","618c128dfba7721f72bf2b11",NA,"ads69o0yqsu9a85","57",0,2345.5,1,11358.4000000001,8,19544.0999999999,"Trolley","cog_load","1","15307.90000000014",1,0,0,6,1,0,0,0,0,0,0,0,0,2,18370.3,1,0,0,"4","15909.5",0,0,3,5,"no","""","""","""","""","""",1,1,0,0,"1","3","3","1",1,1,1,3,"wrong","neutral","It's wrong and I can provide a valid reason.","wrong","wrong","wrong","wrong","wrong","not wrong",FALSE,FALSE,FALSE,FALSE,TRUE,FALSE,FALSE,FALSE,0,TRUE,1,"unstated","reason","reason","reason","reason","unstated","reason","reason","reason",TRUE
191,"cog_load","2636","""","survey-text",53,348990,"0.0-6.0","5969e63d06679c00014b82ac","618c3b2aede0bd8b60993dfa","618c128dfba7721f72bf2b11",NA,"ydb8h52o3gfgszd","52",0,2041,4,20055,8,46355,"Heinz","cog_load","7","8200",1,0,0,7,0,0,0,0,0,0,0,1,0,2,7980,1,0,0,"1","11804",1,0,0,7,"No","{""Q0"":""no""}","""","""","""","""",0,1,0,0,"0","0","He didn’t need to price it so high","0",1,1,1,1,"right","wrong","It's wrong and I can provide a valid reason.","not wrong","wrong","wrong","not wrong","wrong","wrong",TRUE,FALSE,TRUE,TRUE,FALSE,FALSE,FALSE,FALSE,0,TRUE,3,"unstated","reason","reason","reason","reason","unstated","reason","reason","reason",TRUE
89,"control","3297","""","survey-text",25,239695,"0.0-6.0","597330a0415cd40001f0d5e8","618c30bde6c44f7922d945f8","618c128dfba7721f72bf2b34",NA,"y96jhscao9e8am4","31",0,1562.00000000001,4,17009,8,52868,"Heinz","control","3","9126",1,0,0,5,0,0,2,0,0,2,0,0,0,1,7536,1,0,0,"3","6657.999999999971",1,0,0,4,"No","{""Q0"":""no""}","""","""","""","""",NA,NA,NA,NA,NA,NA,NA,NA,NA,1,1,1,"wrong","wrong","It's wrong but I can't think of a reason.","wrong","wrong","wrong","wrong","wrong","wrong",FALSE,FALSE,FALSE,FALSE,FALSE,FALSE,TRUE,TRUE,1,FALSE,0,"unstated","2","2","reason","no reason","unstated","2","2","reason",FALSE
805,"control","7407.5","""","survey-text",26,375426,"0.0-6.0","597a72293a82ba000141d7b0","618c95da85ba8348c8152a8c","618c128dfba7721f72bf2b1b",NA,"pgazopmt9tz960s","62",0,1633.30000001192,1,22712.8000000119,8,50040.3000000119,"Heinz","control","1","7104.199999988079",1,0,0,6,0,0,0,0,0,0,0,0,0,2,4850,1,0,0,"3","6396.199999988079",1,0,0,5,"No","{""Q0"":""No""}","""","""","""","""",NA,NA,NA,NA,NA,NA,"The druggist was being greedy and callous - he should have accepted Heinz's offer to pay him after in order to save a life.",NA,NA,1,1,1,"wrong","wrong","It's wrong and I can provide a valid reason.","wrong","wrong","wrong","wrong","wrong","wrong",FALSE,FALSE,FALSE,FALSE,FALSE,FALSE,FALSE,FALSE,0,FALSE,0,"unstated","reason","reason","reason","reason","unstated","reason","reason","reason",TRUE
163,"control","57755","debriefing_form.html","external-html",27,687053,"0.0-7.0","597b11cb30f3ea000122f734","618c391d5b117c110f5dbb20","618c128dfba7721f72bf2b33",NA,"bdjkpm7w390esue","44",0,2389,4,17670,8,95510,"Incest","control","1","5631.999999999971",1,0,0,7,0,0,1,0,0,1,0,0,1,2,16292,1,0,0,"1","6134",1,0,0,7,"No","""","""","""","""","""",NA,NA,NA,NA,NA,NA,"They are siblings, and I think that it is naturally unacceptable for an intelligent human being to make love to a sibling, when you have the ability to not be driven by physical urge to do something, but to make the right choices, because you can.",NA,NA,1,1,1,"wrong","wrong","It's wrong and I can provide a valid reason.","wrong","wrong","wrong","wrong","wrong","wrong",FALSE,FALSE,FALSE,FALSE,FALSE,FALSE,FALSE,FALSE,0,FALSE,0,"unstated","no reason","no reason","no reason","reason","unstated","no reason","no reason","no reason",FALSE
674,"control","2405.5999999046326","debriefing_form.html","external-html",27,229171,"0.0-7.0","597bbb74ae36d500016cb895","618c6036355a7ebe029a7bfb","618c128dfba7721f72bf2b15",NA,"7vxffspls13yvuh","61",1,1632.7999997139,1,15801.3000001907,8,38861.4000000954,"Heinz","control","1","11452.299999713898",1,0,0,7,0,1,0,0,0,0,0,1,0,2,9609.5,1,0,0,"1","5143.200000286102",1,0,0,7,"no","""","""","""","""","""",NA,NA,NA,NA,NA,NA,"life is more important than money",NA,NA,1,1,1,"wrong","wrong","It's wrong and I can provide a valid reason.","wrong","not wrong","wrong","not wrong","wrong","wrong",TRUE,TRUE,TRUE,TRUE,FALSE,FALSE,FALSE,FALSE,0,TRUE,4,"unstated","reason","reason","reason","reason","unstated","reason","reason","reason",TRUE
92,"control","3695.9000000059605","""","survey-text",25,183752,"0.0-6.0","59821c904a66440001fa901e","618c312ee75c0af18b140cf6","618c128dfba7721f72bf2b1c",NA,"sjlyjuxve3dvprv","25",1,2353.60000000894,1,15332.8999999911,8,23035.200000003,"Heinz","control","4","14335.10000000894",1,0,0,3,0,1,0,0,0,0,0,0,0,0,8988.60000000894,1,0,0,"5","10846.5",1,0,0,4,"no","{""Q0"":""no""}","""","""","""","""",NA,NA,NA,NA,NA,NA,NA,NA,NA,1,1,1,"neutral","right","There is nothing wrong.","not wrong","not wrong","wrong","wrong","not wrong","not wrong",FALSE,TRUE,FALSE,TRUE,FALSE,FALSE,FALSE,FALSE,0,TRUE,2,"unstated","reason","reason","reason","unstated","unstated","reason","reason","reason",TRUE
637,"control","5464","debriefing_form.html","external-html",26,196628,"0.0-7.0","59825565a18e3c0001bac3c7","618c59b0977cfdee1ad9d25c","618c128dfba7721f72bf2b1b",NA,"s64w51ups5c62j5","68",0,1715,4,14504,8,25051,"Heinz","control","6","16697",1,0,0,6,0,1,0,0,0,0,0,0,0,0,12435,1,0,0,"6","8497",1,0,0,5,"No","""","""","""","""","""",NA,NA,NA,NA,NA,NA,NA,NA,NA,1,1,1,"right","right","There is nothing wrong.","not wrong","not wrong","wrong","wrong","not wrong","not wrong",FALSE,TRUE,FALSE,TRUE,FALSE,FALSE,FALSE,FALSE,0,TRUE,2,"unstated","reason","reason","reason","unstated","unstated","reason","reason","reason",TRUE
629,"control","3325.9000000953674","""","survey-text",25,164318,"0.0-6.0","5985c60773278100014b2f8e","618c58ecd7234a8337677743","618c128dfba7721f72bf2b28",NA,"rtn3enn0v1137qh","40",1,3803.89999985695,1,8561.79999995232,8,23260.4000000954,"Heinz","control","5","9082.399999856949",1,0,0,7,0,1,0,0,0,0,0,0,0,0,5701.20000004768,1,0,0,"5","7444.5",1,0,0,7,"No","{""Q0"":""Np""}","""","""","""","""",NA,NA,NA,NA,NA,NA,NA,NA,NA,1,1,1,"right","right","There is nothing wrong.","not wrong","not wrong","wrong","wrong","not wrong","not wrong",FALSE,TRUE,FALSE,TRUE,FALSE,FALSE,FALSE,FALSE,0,TRUE,2,"unstated","reason","reason","reason","unstated","unstated","reason","reason","reason",TRUE
851,NA,"4681","""","html-button-response",4,23069,"0.0-3.0","5986ce0eb78fa90001adf2f2","618ca3fd23d0205d63424f7d","618c128dfba7721f72bf2b20",NA,"no0cqxq77geq5s8","57",1,2062,1,4681,NA,NA,NA,NA,NA,NA,NA,NA,NA,NA,NA,NA,NA,NA,NA,NA,NA,NA,NA,NA,NA,NA,NA,NA,NA,NA,NA,NA,NA,NA,NA,"""","<img src=""img/attention2.png""><br>","1",NA,NA,NA,NA,NA,NA,NA,NA,NA,NA,NA,NA,NA,NA,NA,NA,NA,NA,NA,NA,NA,NA,NA,NA,NA,NA,NA,NA,NA,NA,NA,NA,NA,NA,"unstated",NA,NA,NA,NA,"unstated",NA,NA,NA,NA
413,"cog_load","21805","debriefing_form.html","external-html",53,261761,"0.0-7.0","5987753a644ea4000126f00a","618c48ae7bba2a0f31826db0","618c128dfba7721f72bf2b1a",NA,"hl9tgedt543rll7","34",0,11371,1,16062,8,40477,"Incest","cog_load","7","9280",1,0,0,7,0,1,0,0,1,0,0,1,0,0,7495,1,0,0,"7","6101",1,0,0,7,"No","""","""","""","""","""",0,1,0,0,"1","2",NA,"1",1,1,1,1,"right","right","There is nothing wrong.","not wrong","not wrong","not wrong","not wrong","not wrong","not wrong",FALSE,FALSE,FALSE,FALSE,FALSE,FALSE,FALSE,FALSE,0,FALSE,0,"unstated","reason","reason","reason","unstated","unstated","reason","reason","reason",TRUE
104,"control","22048.19999996107","debriefing_form.html","external-html",27,482674,"0.0-7.0","598815c1e684850001dfdd8e","618c3284adaf112ab104d084","618c128dfba7721f72bf2b33",NA,"axb8yp1grxltrz2","43",0,1416.19999997783,4,32291.3999999873,8,47085.3000000352,"Jennifer","control","1","7176.900000020396",1,0,0,7,0,0,0,0,0,0,0,0,0,2,9395.29999997467,1,0,0,"1","5202.599999960512",1,0,0,7,"No","""","""","""","""","""",NA,NA,NA,NA,NA,NA,"The person who it was never agreed to be eaten.  It wasn't their wishes and that should be respected",NA,NA,1,1,1,"wrong","wrong","It's wrong and I can provide a valid reason.","wrong","wrong","wrong","wrong","wrong","wrong",FALSE,FALSE,FALSE,FALSE,FALSE,FALSE,FALSE,FALSE,0,FALSE,0,"unstated","reason","reason","reason","reason","unstated","reason","reason","reason",TRUE
742,"control","5974","""","survey-text",26,265771,"0.0-6.0","5991e02dcceb0f0001b39bbd","618c6ffac6e759a639684d83","618c128dfba7721f72bf2b31",NA,"3u2bqu069hmtu51","65",1,1950,1,9169,8,17754,"Heinz","control","3","22937",1,0,0,5,0,1,0,0,0,0,0,0,0,2,24934,1,0,0,"3","11544",1,0,0,5,"No","{""Q0"":""No""}","""","""","""","""",NA,NA,NA,NA,NA,NA,"On occasion, it is more important to be compassionate than strictly following the law.",NA,NA,1,1,1,"wrong","wrong","It's wrong and I can provide a valid reason.","wrong","not wrong","wrong","wrong","wrong","wrong",TRUE,TRUE,FALSE,FALSE,FALSE,FALSE,FALSE,FALSE,0,TRUE,2,"unstated","reason","reason","reason","reason","unstated","reason","reason","reason",TRUE
237,"control","33340.59999999404","debriefing_form.html","external-html",27,387235,"0.0-7.0","59921d7bb83f800001a5e452","618c3de9c5e7ff3400dcbd16","618c128dfba7721f72bf2b11",NA,"cz9mnc59t4st37c","57",0,1618,1,14780.700000003,8,31155.200000003,"Jennifer","control","1","7778.79999999702",1,0,0,7,0,0,0,0,0,0,0,0,0,2,7054.59999999404,1,0,0,"1","6956.29999999702",1,0,0,7,"No","""","""","""","""","""",NA,NA,NA,NA,NA,NA,"It is disrespectful. Cannibalism can never be justified in a modern society.",NA,NA,1,1,1,"wrong","wrong","It's wrong and I can provide a valid reason.","wrong","wrong","wrong","wrong","wrong","wrong",FALSE,FALSE,FALSE,FALSE,FALSE,FALSE,FALSE,FALSE,0,FALSE,0,"unstated","reason","reason","reason","reason","unstated","reason","reason","reason",TRUE
846,"control","5745.899999976158","debriefing_form.html","external-html",27,244236,"0.0-7.0","5993260f4f3a820001fb39a7","618ca2bf04dc278ca5cbb6e5","618c128dfba7721f72bf2b20",NA,"2e9chysu3dq18hh","57",1,1661.09999990463,4,11001,8,18205.2999999523,"Incest","control","1","6270.5",1,0,0,7,0,1,0,0,0,0,1,0,0,2,7507.20000004768,1,0,0,"1","4249.800000071526",1,0,0,7,"no","""","""","""","""","""",NA,NA,NA,NA,NA,NA,"If the contraception somehow fails, the potential baby is open to allsorts of health problems due to same family sex, it is also wrong in the fact that that is the way I have been brought up",NA,NA,1,1,1,"wrong","wrong","It's wrong and I can provide a valid reason.","wrong","not wrong","wrong","wrong","wrong","wrong",TRUE,TRUE,FALSE,FALSE,FALSE,FALSE,FALSE,FALSE,0,TRUE,2,"unstated","reason","reason","reason","reason","unstated","reason","reason","reason",TRUE
840,"control","2526.0999999940395","debriefing_form.html","external-html",27,275086,"0.0-7.0","599c1130638529000144ffdd","618ca153e74bb3e5d1d9486e","618c128dfba7721f72bf2b1b",NA,"xz90qr6wc62fy73","599c1130638529000144ffdd",0,1811,1,26008.599999994,8,44738.8000000119,"Incest","control","1","7912",1,0,0,7,0,0,1,1,0,1,1,0,1,2,12045.1999999881,1,0,0,"1","8396.799999982119",1,0,0,7,"No","""","""","""","""","""",NA,NA,NA,NA,NA,NA,"It could affect those around them eg parents",NA,NA,1,1,1,"wrong","wrong","It's wrong and I can provide a valid reason.","wrong","wrong","wrong","wrong","wrong","wrong",FALSE,FALSE,FALSE,FALSE,FALSE,FALSE,FALSE,FALSE,0,FALSE,0,"unstated","no reason","no reason","no reason","reason","unstated","no reason","no reason","no reason",FALSE
368,"control","24230","debriefing_form.html","external-html",27,736576,"0.0-7.0","59a40f8f514a2200017e69dc","618c45da1f3c59c66b574a7c","618c128dfba7721f72bf2b23",NA,"fjw5jpdoe9p6ec8","46",1,1154,1,17426,8,42175,"Incest","control","1","6295",1,0,0,7,1,0,0,0,0,0,0,0,0,2,14351,1,0,0,"1","3958",1,0,0,7,"No","""","""","""","""","""",NA,NA,NA,NA,NA,NA,"The reason for it being wrong is that even with contraception and other protection the sister could still have got pregnant.  Also siblings having sex can create social issues if the have a child and can lead to other complications",NA,NA,1,1,1,"wrong","wrong","It's wrong and I can provide a valid reason.","wrong","wrong","wrong","wrong","wrong","wrong",FALSE,FALSE,FALSE,FALSE,FALSE,FALSE,FALSE,FALSE,0,FALSE,0,"unstated","reason","reason","reason","reason","unstated","reason","reason","reason",TRUE
731,"cog_load","7269","""","survey-text",67,366249,"0.0-6.0","59b7cbab110131000146620b","618c6c713c81d76df1a56f19","618c128dfba7721f72bf2b15",NA,"co5gjtjaq2vr6fq","64",1,3289,1,6427,8,24345,"Trolley","cog_load","2","11256",0,0,3,5,0,0,0,0,0,0,0,0,0,2,5787,1,0,0,"2","7707",1,0,0,5,"no","{""Q0"":""no""}","""","""","""","""",1,1,0,0,"3","2","2","1",1,3,1,1,"wrong","wrong","It's wrong and I can provide a valid reason.","wrong","wrong","wrong","wrong","wrong","wrong",FALSE,FALSE,FALSE,FALSE,FALSE,FALSE,FALSE,FALSE,0,FALSE,0,"unstated","reason","reason","reason","reason","unstated","reason","reason","reason",TRUE
730,"control","2544","debriefing_form.html","external-html",27,204717,"0.0-7.0","59b859e711212f0001cd10ff","618c6bd28e2911e11172d3af","618c128dfba7721f72bf2b28",NA,"fa36209cdu28jn1","46",1,1814,1,19705,8,21812,"Jennifer","control","1","5657",1,0,0,7,1,0,0,0,0,0,0,0,0,2,7991,1,0,0,"1","3860",1,0,0,7,"No","""","""","""","""","""",NA,NA,NA,NA,NA,NA,"The body was donated to medical research and science. I do not think the people that donated the body will be happy to learn someone is using the body for other purposes beyond science",NA,NA,1,1,1,"wrong","wrong","It's wrong and I can provide a valid reason.","wrong","wrong","wrong","wrong","wrong","wrong",FALSE,FALSE,FALSE,FALSE,FALSE,FALSE,FALSE,FALSE,0,FALSE,0,"unstated","reason","reason","reason","reason","unstated","reason","reason","reason",TRUE
456,"control","17845","""","survey-text",26,245437,"0.0-6.0","59b85efb76adf400010fcf29","618c4bd196295bf2702d86ae","618c128dfba7721f72bf2b11",NA,"tbx1zcw3nfkkwmb","54",0,2207,4,13297,8,25881,"Heinz","control","1","8061",1,0,0,7,0,0,0,0,1,0,0,1,0,2,7177,1,0,0,"1","4908",1,0,0,7,"No","{""Q0"":""the questions were not well worded""}","""","""","""","""",NA,NA,NA,NA,NA,NA,"He could still make a living if he charged half or even less. 10 x the amount is ridiculous. Money should not come above someone’s life or doing the right thing.",NA,NA,1,1,1,"wrong","wrong","It's wrong and I can provide a valid reason.","wrong","wrong","not wrong","not wrong","wrong","wrong",FALSE,TRUE,FALSE,TRUE,FALSE,FALSE,FALSE,FALSE,0,TRUE,2,"unstated","reason","reason","reason","reason","unstated","reason","reason","reason",TRUE
770,"cog_load","6605.79999999702","""","survey-text",59,409049,"0.0-6.0","59bc49e93c45a10001ccc853","618c7c290d2e1847182c68bc","618c128dfba7721f72bf2b20",NA,"5xythe45rnlw37c","57",1,6742.5,1,12850.900000006,8,25386.8000000119,"Incest","cog_load","5","8220.09999999404",0,2,0,2,0,1,0,0,1,0,0,1,0,0,8079,1,0,0,"5","9493.20000000298",1,0,0,3,"No","{""Q0"":""NO""}","""","""","""","""",1,1,0,0,"1","2",NA,"1",1,2,1,1,"right","right","There is nothing wrong.","not wrong","not wrong","not wrong","not wrong","not wrong","not wrong",FALSE,FALSE,FALSE,FALSE,FALSE,FALSE,FALSE,FALSE,0,FALSE,0,"unstated","reason","reason","reason","unstated","unstated","reason","reason","reason",TRUE
107,NA,"13915","""","html-button-response",4,32417,"0.0-3.0","59beb0703a9ab60001119cbb","618c32e51c2c4364224443a0","618c128dfba7721f72bf2b34",NA,"sov5eflzfr2lxy2","34",0,2208,4,13915,NA,NA,NA,NA,NA,NA,NA,NA,NA,NA,NA,NA,NA,NA,NA,NA,NA,NA,NA,NA,NA,NA,NA,NA,NA,NA,NA,NA,NA,NA,NA,"""","<img src=""img/attention2.png""><br>","4",NA,NA,NA,NA,NA,NA,NA,NA,NA,NA,NA,NA,NA,NA,NA,NA,NA,NA,NA,NA,NA,NA,NA,NA,NA,NA,NA,NA,NA,NA,NA,NA,NA,NA,"unstated",NA,NA,NA,NA,"unstated",NA,NA,NA,NA
66,"control","14592.90000000596","debriefing_form.html","external-html",27,285671,"0.0-7.0","59c26d905364260001dc4b9f","618c2d3027a32919a7a2e33c","618c128dfba7721f72bf2b33",NA,"lq2bkpdm02yy6md","38",0,2053.69999998808,1,21984.5,8,32132.5,"Heinz","control","1","8063.200000017881",1,0,0,7,0,0,0,0,0,0,0,1,0,2,11723.3999999762,1,0,0,"1","6586.699999988079",1,0,0,7,"No","""","""","""","""","""",NA,NA,NA,NA,NA,NA,"He put someone's life over making a profit. He would have made a profit at half price but he refused",NA,NA,1,1,1,"wrong","wrong","It's wrong and I can provide a valid reason.","wrong","wrong","wrong","not wrong","wrong","wrong",FALSE,FALSE,TRUE,TRUE,FALSE,FALSE,FALSE,FALSE,0,TRUE,2,"unstated","reason","reason","reason","reason","unstated","reason","reason","reason",TRUE
1030,"control","6316.799999999814","""","html-button-response",18,311648,"0.0-4.0-3.0-4.0-6.0","59d32249f7b7a000011982bc","618d9a15536feed95b9ebadb","618d7b245d63c4043bcefa05",NA,"fb053vjfrqwm3bb","36",0,2301.60000000009,1,21006.1999999997,8,61567.1999999997,"Jennifer","control","1","6716.800000000279",1,0,0,6,0,0,0,0,0,0,1,NA,NA,NA,NA,NA,NA,NA,NA,NA,NA,NA,NA,NA,NA,"""","<p>And do you accept that there was no risk of disease?</p>","1","""","""",NA,NA,NA,NA,NA,NA,NA,NA,NA,1,NA,NA,"wrong",NA,NA,"wrong","wrong","wrong",NA,NA,NA,FALSE,FALSE,NA,NA,NA,FALSE,NA,NA,NA,NA,NA,"unstated","reason","reason",NA,NA,"unstated","reason","reason",NA,NA
206,"cog_load","16396","""","survey-text",60,344591,"0.0-6.0","59d383ecd2279700011999e2","618c3b60faccc0d7b14490f7","618c128dfba7721f72bf2b34",NA,"7thkf0nhfupdxpx","36",0,1721,1,2831,8,29906,"Jennifer","cog_load","1","6847",0,2,0,5,0,0,0,0,0,0,0,0,0,2,7854,1,0,0,"1","7321.000000000058",1,0,0,5,"No","{""Q0"":""the number videos did not work so I had to put 0 every time""}","""","""","""","""",0,1,0,0,"0","0","The person whose body it was did not consent and neither did the people who cared for that person. It is also illegal to desecrate a corpse","0",1,2,1,1,"wrong","wrong","It's wrong and I can provide a valid reason.","wrong","wrong","wrong","wrong","wrong","wrong",FALSE,FALSE,FALSE,FALSE,FALSE,FALSE,FALSE,FALSE,0,FALSE,0,"unstated","reason","reason","reason","reason","unstated","reason","reason","reason",TRUE
745,"control","3033.0000000001164","debriefing_form.html","external-html",27,621626,"0.0-7.0","59d3e6c5cafa460001f84103","618c70c4fa1ef3801809fcd8","618c128dfba7721f72bf2b20",NA,"m4p07ouumk3bb75","52",1,1583,4,15387,8,166723,"Heinz","control","1","11538",1,0,0,6,0,0,0,0,0,0,0,0,0,2,8569,1,0,0,"1","19157",1,0,0,7,"No I haven’t","""","""","""","""","""",NA,NA,NA,NA,NA,NA,"He could sell it at a reasonable price, help people and still make his prfofit",NA,NA,1,1,1,"wrong","wrong","It's wrong and I can provide a valid reason.","wrong","wrong","wrong","wrong","wrong","wrong",FALSE,FALSE,FALSE,FALSE,FALSE,FALSE,FALSE,FALSE,0,FALSE,0,"unstated","reason","reason","reason","reason","unstated","reason","reason","reason",TRUE
284,"control","3584","debriefing_form.html","external-html",27,163121,"0.0-7.0","59d54322c732930001d88b0f","618c41643c9270f7a50dea75","618c128dfba7721f72bf2b33",NA,"8jcvkbfuca0qe32","39",0,1507,4,20329,8,23735,"Heinz","control","2","7710.999999999985",1,0,0,6,0,1,2,0,0,1,0,0,1,2,5816,1,0,0,"2","5576",1,0,0,6,"No","""","""","""","""","""",NA,NA,NA,NA,NA,NA,"Greed",NA,NA,1,1,1,"wrong","wrong","It's wrong and I can provide a valid reason.","wrong","not wrong","wrong","wrong","wrong","wrong",TRUE,TRUE,FALSE,FALSE,FALSE,TRUE,FALSE,TRUE,1,TRUE,2,"unstated","2","no reason","no reason","reason","unstated","2","no reason","no reason",FALSE
388,"control","8570.399999976158","debriefing_form.html","external-html",27,189547,"0.0-7.0","59d71813e2762800015eb5d8","618c46f6407c3802b13adea5","618c128dfba7721f72bf2b28",NA,"98sjjymaxqh4egx","41",1,2675.19999998808,4,16739.3000000119,8,23876,"Jennifer","control","1","4037.100000023842",1,0,0,7,0,0,0,0,0,0,0,0,0,2,5916.39999997616,1,0,0,"1","3776.699999988079",1,0,0,7,"No","""","""","""","""","""",NA,NA,NA,NA,NA,NA,"What Jennifer did was beyond what the person had agreed to happen to their body after death. She violated the body by consuming it.",NA,NA,1,1,1,"wrong","wrong","It's wrong and I can provide a valid reason.","wrong","wrong","wrong","wrong","wrong","wrong",FALSE,FALSE,FALSE,FALSE,FALSE,FALSE,FALSE,FALSE,0,FALSE,0,"unstated","reason","reason","reason","reason","unstated","reason","reason","reason",TRUE
919,"cog_load","4572","""","survey-text",67,484975,"0.0-6.0","59e39cc9c0d35a0001294f20","618cbcb272d1d77a9056e878","618c128dfba7721f72bf2b15",NA,"c0fyn5kq3my7hmd","68",1,2800.99999999999,1,23274,8,27564,"Incest","cog_load","1","5839",0,2,0,7,0,1,0,0,0,0,0,0,0,2,4961,0,2,0,"1","10844",1,0,0,7,"No","{""Q0"":""No""}","""","""","""","""",2,1,0,0,"1","1","1","1",1,2,2,1,"wrong","wrong","It's wrong and I can provide a valid reason.","wrong","not wrong","wrong","wrong","wrong","wrong",TRUE,TRUE,FALSE,FALSE,FALSE,FALSE,FALSE,FALSE,0,TRUE,2,"unstated","reason","reason","reason","reason","unstated","reason","reason","reason",TRUE
943,"control","27482.00000000006","debriefing_form.html","external-html",27,296918,"0.0-7.0","59e505bf6100f9000194a4c9","618d82e3fac4b65cc84ef538","618d7b245d63c4043bcefa05",NA,"cwqp9shcw3hyedw","28",0,1940,1,21658,8,43516,"Jennifer","control","1","9887.99999999997",1,0,0,4,0,0,0,0,0,0,0,0,0,2,8811,1,0,0,"2","7051.999999999971",1,0,0,6,"No","""","""","""","""","""",NA,NA,NA,NA,NA,NA,"With the person being dead and donating their body to science this was not part of what they signed up to.",NA,NA,1,1,1,"wrong","wrong","It's wrong and I can provide a valid reason.","wrong","wrong","wrong","wrong","wrong","wrong",FALSE,FALSE,FALSE,FALSE,FALSE,FALSE,FALSE,FALSE,0,FALSE,0,"unstated","reason","reason","reason","reason","unstated","reason","reason","reason",TRUE
1005,"cog_load","5770","""","survey-text",52,361842,"0.0-6.0","59e50dd462637600014a76df","618d951788b931dbbd5b8e4d","618d7b245d63c4043bcefa05",NA,"279ycfbbhrmk4sb","46",0,1705,4,19587,1,31014,"Trolley","cog_load","3","10784.00000000003",1,0,0,3,1,0,1,0,0,1,0,0,1,1,5340,1,0,0,"3","6498",1,0,0,3,"No","{""Q0"":""no""}","""","""","""","""",2,1,0,0,"0","1",NA,"0",1,1,1,1,"wrong","wrong","It's wrong but I can't think of a reason.","wrong","wrong","wrong","wrong","wrong","wrong",FALSE,FALSE,FALSE,FALSE,FALSE,FALSE,FALSE,FALSE,0,FALSE,0,"unstated","no reason","no reason","no reason","no reason","unstated","no reason","no reason","no reason",FALSE
425,"cog_load","5091","debriefing_form.html","external-html",68,386958,"0.0-7.0","59e60f9a3e4b5a00016aa0cd","618c497c4f779986825e39be","618c128dfba7721f72bf2b15",NA,"7uhvn36kndt2ddt","59e60f9a3e4b5a00016aa0cd",1,1997,1,20425,8,27865,"Jennifer","cog_load","2","4165",0,2,0,5,0,0,1,0,0,1,1,0,1,2,17981,1,0,0,"1","2388",0,0,3,6,"No","""","""","""","""","""",2,1,0,0,"1","1","1","2",1,2,1,3,"wrong","wrong","It's wrong and I can provide a valid reason.","wrong","wrong","wrong","wrong","wrong","wrong",FALSE,FALSE,FALSE,FALSE,FALSE,FALSE,FALSE,FALSE,0,FALSE,0,"unstated","no reason","no reason","no reason","reason","unstated","no reason","no reason","no reason",FALSE
622,"cog_load","16754.900000035763","debriefing_form.html","external-html",54,324989,"0.0-7.0","59e611c6d838ae0001850a15","618c58a892921acfb6416477","618c128dfba7721f72bf2b1b",NA,"rm294hc7pmumj27","60",0,2296.69999998808,4,23482.1999999881,8,22541,"Heinz","cog_load","1","11201.100000023842",1,0,0,6,0,0,0,0,0,0,0,0,0,2,15342.0999999642,1,0,0,"1","8955.900000035763",1,0,0,6,"No","""","""","""","""","""",2,1,0,0,"1","4","He was proffiteerìng","1",1,1,1,1,"wrong","wrong","It's wrong and I can provide a valid reason.","wrong","wrong","wrong","wrong","wrong","wrong",FALSE,FALSE,FALSE,FALSE,FALSE,FALSE,FALSE,FALSE,0,FALSE,0,"unstated","reason","reason","reason","reason","unstated","reason","reason","reason",TRUE
361,"control","4045","debriefing_form.html","external-html",27,230258,"0.0-7.0","59e6fd09ac0af70001b369f8","618c45a070a4eaeb3aa4e843","618c128dfba7721f72bf2b33",NA,"46ny6jd1ubgfgdu","40",0,2242,1,26745,8,35626,"Trolley","control","1","3571.999999999971",1,0,0,7,0,0,0,0,0,0,0,0,0,2,8025,1,0,0,"1","5886",1,0,0,7,"No","""","""","""","""","""",NA,NA,NA,NA,NA,NA,"You shouldn’t be able to choose who lives and dies",NA,NA,1,1,1,"wrong","wrong","It's wrong and I can provide a valid reason.","wrong","wrong","wrong","wrong","wrong","wrong",FALSE,FALSE,FALSE,FALSE,FALSE,FALSE,FALSE,FALSE,0,FALSE,0,"unstated","reason","reason","reason","reason","unstated","reason","reason","reason",TRUE
1120,"cog_load","3280","""","survey-text",67,316623,"0.0-6.0","59eb9c7a6a6c3a000154bb97","618db61f07e8ff1a595ddd46","618d7b245d63c4043bcefa04",NA,"mbrqgrs5sf9fjr5","60",1,2165,1,10583,8,15663,"Incest","cog_load","1","13073",0,2,0,5,0,0,0,0,0,0,0,0,0,2,10062,1,0,0,"1","7961",1,0,0,5,"no","{""Q0"":""no""}","""","""","""","""",0,0,2,0,"1","3","Incest is in my view morally wrong","1",2,2,1,1,"wrong","wrong","It's wrong and I can provide a valid reason.","wrong","wrong","wrong","wrong","wrong","wrong",FALSE,FALSE,FALSE,FALSE,FALSE,FALSE,FALSE,FALSE,0,FALSE,0,"unstated","reason","reason","reason","reason","unstated","reason","reason","reason",TRUE
911,"cog_load","2766","""","survey-text",66,311163,"0.0-6.0","59ef022eae9f950001d84a43","618cbb0d8a1d9bb088509abc","618c128dfba7721f72bf2b15",NA,"gsh5tckn8ka10yf","63",1,1118,1,17784,8,20351,"Heinz","cog_load","2","5708",0,0,3,5,1,0,0,0,0,0,0,0,0,1,4827.00000000009,1,0,0,"2","16948",1,0,0,5,"No","{""Q0"":""no""}","""","""","""","""",1,1,0,0,"1","3",NA,"1",1,3,1,1,"wrong","wrong","It's wrong but I can't think of a reason.","wrong","wrong","wrong","wrong","wrong","wrong",FALSE,FALSE,FALSE,FALSE,FALSE,FALSE,FALSE,FALSE,0,FALSE,0,"unstated","reason","reason","reason","no reason","unstated","reason","reason","reason",TRUE
600,"cog_load","5767.19999999553","""","survey-text",59,372998,"0.0-6.0","5a0064fa120fb30001947fa5","618c5664764c319bcd8e8953","618c128dfba7721f72bf2b15",NA,"nvkonomocndvlst","58",1,1844.89999999851,1,22891.8000000045,8,40614.5,"Trolley","cog_load","5","6195.69999999553",0,2,0,3,0,1,2,0,1,1,0,1,1,0,10151,1,0,0,"5","9396.19999999553",1,0,0,4,"yes, at school many years ago again using a runaway train","{""Q0"":""no""}","""","""","""","""",2,1,0,0,"1","3",NA,"1",1,2,1,1,"right","right","There is nothing wrong.","not wrong","not wrong","not wrong","not wrong","not wrong","not wrong",FALSE,FALSE,FALSE,FALSE,FALSE,TRUE,FALSE,TRUE,1,FALSE,0,"unstated","2","no reason","no reason","unstated","unstated","2","no reason","no reason",FALSE
444,"cog_load","4313.100000023842","""","survey-text",59,372374,"0.0-5.0","5a0313d7df3fa800015c3194","618c4b06248f14725d45274a","618c128dfba7721f72bf2b25",NA,"pqkzh1kfb5r6dxh","30",1,1624.29999995232,4,8363.69999992847,8,13483.5999999046,"Heinz","cog_load","1","9535.299999952316",0,2,0,5,0,0,0,1,1,0,1,1,0,2,13976.7999999523,1,0,0,"3","14626.5",1,0,0,5,"no","{""Q0"":""no""}","""","""","""","""",2,1,0,0,"1","3","if it could save a life an arragement could be made","1",1,2,1,1,"wrong","wrong","It's wrong and I can provide a valid reason.","wrong","wrong","not wrong","not wrong","wrong","wrong",FALSE,TRUE,FALSE,TRUE,FALSE,FALSE,FALSE,FALSE,0,TRUE,2,"unstated","reason","reason","reason","reason","unstated","reason","reason","reason",TRUE
1143,"cog_load","9672.899999976158","debriefing_form.html","external-html",67,410553,"0.0-7.0","5a0323d1c259f30001765337","618dc6fee091cc64b0c0c7e4","618d7b245d63c4043bcefa04",NA,"xuox7s9od2wve8m","37",1,1246.5,1,22114.3999999762,8,38923.1000000238,"Incest","cog_load","1","2133.7000000178814",0,0,3,5,1,0,0,0,0,0,0,0,0,1,9791,1,0,0,"1","18474.59999999404",1,0,0,5,"No","""","""","""","""","""",1,1,0,0,"1","3",NA,"1",1,3,1,1,"wrong","wrong","It's wrong but I can't think of a reason.","wrong","wrong","wrong","wrong","wrong","wrong",FALSE,FALSE,FALSE,FALSE,FALSE,FALSE,FALSE,FALSE,0,FALSE,0,"unstated","reason","reason","reason","no reason","unstated","reason","reason","reason",TRUE
152,"control","8046","debriefing_form.html","external-html",26,465116,"0.0-7.0","5a062680c259f300017656b3","618c37a1c5ee9af57bfdc9bb","618c128dfba7721f72bf2b2c",NA,"qpeaarvf7srbas9","20",1,1006,1,7496,8,16922,"Trolley","control","5","4607",1,0,0,5,0,1,0,0,1,0,0,1,0,0,8694,1,0,0,"5","2145",1,0,0,5,"Not this exact manner but it reminds me of the classic trolley problem (kill 3 people or perform an action that only kills 1)","""","""","""","""","""",NA,NA,NA,NA,NA,NA,NA,NA,NA,1,1,1,"right","right","There is nothing wrong.","not wrong","not wrong","not wrong","not wrong","not wrong","not wrong",FALSE,FALSE,FALSE,FALSE,FALSE,FALSE,FALSE,FALSE,0,FALSE,0,"unstated","reason","reason","reason","unstated","unstated","reason","reason","reason",TRUE
864,"control","8490","debriefing_form.html","external-html",27,400089,"0.0-7.0","5a0dbc9e9b760100013a7857","618caa7f1539e9b7150faae4","618c128dfba7721f72bf2b15",NA,"gvgy67n2656t9g6","66",1,2156,4,26560,8,27198,"Jennifer","control","1","9669",1,0,0,7,1,0,0,0,0,0,1,0,0,2,10933,1,0,0,"1","9185",1,0,0,7,"No","""","""","""","""","""",NA,NA,NA,NA,NA,NA,"Eating human flesh is against all principles and ethics as developed over our evolution.",NA,NA,1,1,1,"wrong","wrong","It's wrong and I can provide a valid reason.","wrong","wrong","wrong","wrong","wrong","wrong",FALSE,FALSE,FALSE,FALSE,FALSE,FALSE,FALSE,FALSE,0,FALSE,0,"unstated","reason","reason","reason","reason","unstated","reason","reason","reason",TRUE
894,"cog_load","3695.100000023842","""","survey-text",53,367815,"0.0-6.0","5a0e9f5c9b760100013a7944","618cb6679ae1d4591aa5d4a5","618c128dfba7721f72bf2b15",NA,"ro5q8jq13al5y2n","69",1,2534.19999998808,1,17070.3000000119,8,28752.7000000477,"Incest","cog_load","1","8605.300000011921",1,0,0,5,0,1,1,0,0,0,0,0,0,2,9885.90000003576,1,0,0,"1","8318.700000047684",1,0,0,5,"no","{""Q0"":""no""}","""","""","""","""",2,1,0,0,"1","5","brother and sister do not behave like this","1",1,1,1,1,"wrong","wrong","It's wrong and I can provide a valid reason.","wrong","not wrong","wrong","wrong","wrong","wrong",TRUE,TRUE,FALSE,FALSE,FALSE,TRUE,FALSE,TRUE,1,TRUE,2,"unstated","no reason","reason","reason","reason","unstated","no reason","reason","reason",FALSE
8,NA,"32143","""","html-button-response",4,54734,"0.0-3.0","5a0f34de9b760100013a7afd","618c1f73c7e17f879393f018","618c128dfba7721f72bf2b34",NA,"v1pb6urgt9of8z7","34",1,1431,4,32143,NA,NA,NA,NA,NA,NA,NA,NA,NA,NA,NA,NA,NA,NA,NA,NA,NA,NA,NA,NA,NA,NA,NA,NA,NA,NA,NA,NA,NA,NA,NA,"""","<img src=""img/attention2.png""><br>","4",NA,NA,NA,NA,NA,NA,NA,NA,NA,NA,NA,NA,NA,NA,NA,NA,NA,NA,NA,NA,NA,NA,NA,NA,NA,NA,NA,NA,NA,NA,NA,NA,NA,NA,"unstated",NA,NA,NA,NA,"unstated",NA,NA,NA,NA
601,"cog_load","2608","""","survey-text",60,402769,"0.0-6.0","5a14808b844c7a00015e59dc","618c56798e8bf4b0d94d268e","618c128dfba7721f72bf2b25",NA,"a6mlsq3uelkkqdh","37",1,2016,4,15400,8,25200,"Jennifer","cog_load","7","14238",1,0,0,6,1,0,0,0,0,0,0,0,0,2,8141,0,2,0,"2","10189",1,0,0,5,"No","{""Q0"":""No""}","""","""","""","""",2,1,0,0,"3","2","Because it is cannabalism","1",1,1,2,1,"right","wrong","It's wrong and I can provide a valid reason.","not wrong","wrong","wrong","wrong","wrong","wrong",TRUE,FALSE,FALSE,FALSE,FALSE,FALSE,FALSE,FALSE,0,TRUE,1,"unstated","reason","reason","reason","reason","unstated","reason","reason","reason",TRUE
277,"cog_load","4955.79999999702","""","survey-text",81,803712,"0.0-6.0","5a1dda5480acd8000104a12b","618c40fdf86783e53eb7b3a6","618c128dfba7721f72bf2b0d",NA,"n6t1x47qm73pp53","28",0,1162.89999999851,1,183630.100000001,8,55533.1000000015,"Jennifer","cog_load","1","17289.10000000149",0,0,3,7,1,0,0,0,0,0,0,0,0,2,16919.200000003,1,0,0,"1","10481.70000000298",0,0,3,7,"No","{""Q0"":""No""}","""","""","""","""",1,0,2,0,"1","3","3","1",2,3,1,3,"wrong","wrong","It's wrong and I can provide a valid reason.","wrong","wrong","wrong","wrong","wrong","wrong",FALSE,FALSE,FALSE,FALSE,FALSE,FALSE,FALSE,FALSE,0,FALSE,0,"unstated","reason","reason","reason","reason","unstated","reason","reason","reason",TRUE
497,"control","3806.5","""","survey-text",25,147639,"0.0-6.0","5a1ef4706e1ea9000125017e","618c4f10211bf2f4d37dcc20","618c128dfba7721f72bf2b15",NA,"pfmb6a8k2mk6c53","61",1,1797.90000000596,1,14470.599999994,8,19496.5,"Heinz","control","6","4597.899999991059",1,0,0,7,0,1,1,0,0,0,0,0,0,0,5750.69999998808,1,0,0,"5","8549.79999999702",1,0,0,5,"no","{""Q0"":""no""}","""","""","""","""",NA,NA,NA,NA,NA,NA,NA,NA,NA,1,1,1,"right","right","There is nothing wrong.","not wrong","not wrong","wrong","wrong","not wrong","not wrong",FALSE,TRUE,FALSE,TRUE,FALSE,TRUE,FALSE,TRUE,1,TRUE,2,"unstated","no reason","reason","reason","unstated","unstated","no reason","reason","reason",FALSE
422,"control","22747","debriefing_form.html","external-html",27,175333,"0.0-7.0","5a21aabb2b98bc0001a67c65","618c496df426a225b5c168fd","618c128dfba7721f72bf2b20",NA,"j8xelom21o9elqj","53",1,1443.5,1,5646.09999990463,8,12854.5,"Incest","control","2","5211.400000095367",1,0,0,6,1,0,0,0,0,0,0,0,0,2,6350.39999961853,1,0,0,"2","3781.6000003814697",1,0,0,6,"no","""","""","""","""","""",NA,NA,NA,NA,NA,NA,"they're brother and sister and precautions are not 100% guaranteed",NA,NA,1,1,1,"wrong","wrong","It's wrong and I can provide a valid reason.","wrong","wrong","wrong","wrong","wrong","wrong",FALSE,FALSE,FALSE,FALSE,FALSE,FALSE,FALSE,FALSE,0,FALSE,0,"unstated","reason","reason","reason","reason","unstated","reason","reason","reason",TRUE
194,"cog_load","2375.899999976158","""","survey-text",53,229742,"0.0-6.0","5a25654de1c1ef0001d530d1","618c3b5af4f932c7e7d86aea","618c128dfba7721f72bf2b0e",NA,"z1fljoef1w8ysxb","23",0,1147.10000002384,1,15104.6000000238,8,11655.5999999046,"Trolley","cog_load","3","7989.5",1,0,0,5,0,0,0,1,0,0,0,0,0,2,14163,1,0,0,"3","11404.199999928474",1,0,0,4,"yes, it is the trolley problem","{""Q0"":""no""}","""","""","""","""",2,1,0,0,"1","3","Killing is killing, no matter how many people die.","1",1,1,1,1,"wrong","wrong","It's wrong and I can provide a valid reason.","wrong","wrong","wrong","wrong","wrong","wrong",FALSE,FALSE,FALSE,FALSE,FALSE,FALSE,FALSE,FALSE,0,FALSE,0,"unstated","reason","reason","reason","reason","unstated","reason","reason","reason",TRUE
854,"control","35197.5","debriefing_form.html","external-html",27,359405,"0.0-7.0","5a38d56e50833c0001eeacf3","618ca637b91c4afc25691b6d","618c128dfba7721f72bf2b1b",NA,"tk7l8p02rr97auq","62",0,3565,4,12013.1000000238,8,53351.8999999762,"Trolley","control","1","8952.400000035763",1,0,0,7,0,0,0,0,0,0,0,0,0,2,9212.30000001192,1,0,0,"1","4743.5",1,0,0,7,"Yes, but can't remember any details","""","""","""","""","""",NA,NA,NA,NA,NA,NA,"He deliberately sacrificed another man's life",NA,NA,1,1,1,"wrong","wrong","It's wrong and I can provide a valid reason.","wrong","wrong","wrong","wrong","wrong","wrong",FALSE,FALSE,FALSE,FALSE,FALSE,FALSE,FALSE,FALSE,0,FALSE,0,"unstated","reason","reason","reason","reason","unstated","reason","reason","reason",TRUE
662,"cog_load","2761","""","survey-text",60,360479,"0.0-6.0","5a3cef0066e7880001de3bf9","618c5e5e070241e6f220dbf2","618c128dfba7721f72bf2b15",NA,"dv0y609hkhn5sy7","67",1,3233,1,12587,8,19153,"Trolley","cog_load","2","12161",1,0,0,6,0,1,0,1,0,0,0,1,0,2,9502,1,0,0,"2","9255",1,0,0,6,"No","{""Q0"":""}","""","""","""","""",1,0,2,0,"1","2","2 wrongs do not make a right","1",2,1,1,1,"wrong","wrong","It's wrong and I can provide a valid reason.","wrong","not wrong","wrong","not wrong","wrong","wrong",TRUE,TRUE,TRUE,TRUE,FALSE,FALSE,FALSE,FALSE,0,TRUE,4,"unstated","reason","reason","reason","reason","unstated","reason","reason","reason",TRUE
650,"cog_load","1986.199999988079","""","survey-text",52,291395,"0.0-6.0","5a4c334121bfa00001081a4e","618c5b9a471fe15b7ba13683","618c128dfba7721f72bf2b20",NA,"7d816upm61txeq4","54",1,1860,1,11673.3000000119,8,15412.8999999762,"Heinz","cog_load","2","15656.699999988079",1,0,0,6,0,0,0,0,0,0,0,0,0,1,17450,1,0,0,"2","17432.200000047684",1,0,0,5,"no","{""Q0"":""}","""","""","""","""",1,1,0,0,"1","3",NA,"1",1,1,1,1,"wrong","wrong","It's wrong but I can't think of a reason.","wrong","wrong","wrong","wrong","wrong","wrong",FALSE,FALSE,FALSE,FALSE,FALSE,FALSE,FALSE,FALSE,0,FALSE,0,"unstated","reason","reason","reason","no reason","unstated","reason","reason","reason",TRUE
525,"control","5248","debriefing_form.html","external-html",27,263749,"0.0-7.0","5a57c51876d1c60001ab090d","618c5107063537fe9ba27c62","618c128dfba7721f72bf2b11",NA,"mp6qkl237s3e37d","5a57c51876d1c60001ab090d",0,1608,4,21079,8,39057,"Jennifer","control","1","7036",1,0,0,1,1,0,0,0,0,0,0,0,0,2,9956.00000000003,1,0,0,"1","4666",1,0,0,7,"No","""","""","""","""","""",NA,NA,NA,NA,NA,NA,"It is morally wrong to desecrate a body it is also cannibalism and against the law and society standards",NA,NA,1,1,1,"wrong","wrong","It's wrong and I can provide a valid reason.","wrong","wrong","wrong","wrong","wrong","wrong",FALSE,FALSE,FALSE,FALSE,FALSE,FALSE,FALSE,FALSE,0,FALSE,0,"unstated","reason","reason","reason","reason","unstated","reason","reason","reason",TRUE
65,"control","104674.30000007153","""","survey-text",26,429043,"0.0-6.0","5a57cbefe0cf3d0001265124","618c2d2eee5accfd79ed5622","618c128dfba7721f72bf2b33",NA,"p8op9p0u96achln","38",2,1848.70000004768,4,14088.3999999762,8,23967,"Heinz","control","1","5268.599999904633",1,0,0,7,0,1,0,0,1,0,0,0,0,2,7913.5,1,0,0,"1","6792.100000023842",1,0,0,7,"no","{""Q0"":""I don't agree with stealing, but the druggist would be making a profit if the drug worked, Heinz acted from desperation. A good person would have seen his desperation and helped him, knowing that they were saving a life, potentially, and that the drug would be in high demand if it was proved effective in this emergency.""}","""","""","""","""",NA,NA,NA,NA,NA,NA,"He's profiting from the misery of others. A life-saving drug should be available at cost in emergencies and at only a small profit in non-emergencies. There's a difference between making back costs and making a living, and price gouging. The druggist was price gouging and caused harm.",NA,NA,1,1,1,"wrong","wrong","It's wrong and I can provide a valid reason.","wrong","not wrong","not wrong","wrong","wrong","wrong",TRUE,FALSE,TRUE,FALSE,FALSE,FALSE,FALSE,FALSE,0,TRUE,2,"unstated","reason","reason","reason","reason","unstated","reason","reason","reason",TRUE
842,"cog_load","19353.999999992084","""","survey-text",60,368023,"0.0-6.0","5a5a6318ac5624000153e365","618ca24d8eef5fbb06168ff5","618c128dfba7721f72bf2b20",NA,"6sc9xryvxwjnv5t","48",1,1668.60000000452,1,16341.7999999947,8,42215.3999999864,"Trolley","cog_load","2","11015.299999999115",1,0,0,6,0,0,0,0,0,0,0,0,0,2,7137.19999999739,1,0,0,"2","12032.00000000652",1,0,0,6,"No","{""Q0"":""No""}","""","""","""","""",2,0,2,0,"1","1","1","1",2,1,1,1,"wrong","wrong","It's wrong and I can provide a valid reason.","wrong","wrong","wrong","wrong","wrong","wrong",FALSE,FALSE,FALSE,FALSE,FALSE,FALSE,FALSE,FALSE,0,FALSE,0,"unstated","reason","reason","reason","reason","unstated","reason","reason","reason",TRUE
249,"control","2456.3000000715256","""","survey-text",25,215498,"0.0-6.0","5a5ceefde0cf3d0001269190","618c3eca10b3dc27a4a00961","618c128dfba7721f72bf2b1b",NA,"zm135xds3cyzunx","60",0,1358.79999995232,1,17747.1999999285,8,48588.8999999762,"Trolley","control","6","17826.100000023842",1,0,0,3,0,1,0,0,1,0,0,1,0,0,8382,1,0,0,"7","5513.400000095367",1,0,0,5,"No","{""Q0"":""}","""","""","""","""",NA,NA,NA,NA,NA,NA,NA,NA,NA,1,1,1,"right","right","There is nothing wrong.","not wrong","not wrong","not wrong","not wrong","not wrong","not wrong",FALSE,FALSE,FALSE,FALSE,FALSE,FALSE,FALSE,FALSE,0,FALSE,0,"unstated","reason","reason","reason","unstated","unstated","reason","reason","reason",TRUE
183,"cog_load","17129.599999999627","debriefing_form.html","external-html",54,298031,"0.0-7.0","5a5f94a28e62590001764c91","618c3a91e6804c1f17b9c2a4","618c128dfba7721f72bf2b33",NA,"0kthd0k6199cxm3","41",0,1114.69999999925,4,18468.7999999989,8,25754.7999999989,"Jennifer","cog_load","1","7687.9000000003725",1,0,0,7,0,0,0,0,0,0,1,0,0,2,7476,1,0,0,"1","6008.4000000003725",1,0,0,7,"No","""","""","""","""","""",2,1,0,0,"1","2","When the person was alive they did not consent to be eaten","1",1,1,1,1,"wrong","wrong","It's wrong and I can provide a valid reason.","wrong","wrong","wrong","wrong","wrong","wrong",FALSE,FALSE,FALSE,FALSE,FALSE,FALSE,FALSE,FALSE,0,FALSE,0,"unstated","reason","reason","reason","reason","unstated","reason","reason","reason",TRUE
35,"control","12392.00000000003","""","survey-text",25,141475,"0.0-6.0","5a6107bb31b87a0001c6c49b","618c27888191fa931cc80c6f","618c128dfba7721f72bf2b34",NA,"y9768tf9hoyxwn8","31",0,2561,1,8558.00000000001,0,11729,"Jennifer","control","1","3482.9999999999854",1,0,0,7,0,0,1,0,0,1,1,0,1,1,8146.99999999999,1,0,0,"1","7967",1,0,0,7,"No never","{""Q0"":""It is cannablism ""}","""","""","""","""",NA,NA,NA,NA,NA,NA,NA,NA,NA,1,1,1,"wrong","wrong","It's wrong but I can't think of a reason.","wrong","wrong","wrong","wrong","wrong","wrong",FALSE,FALSE,FALSE,FALSE,FALSE,FALSE,FALSE,FALSE,0,FALSE,0,"unstated","no reason","no reason","no reason","no reason","unstated","no reason","no reason","no reason",FALSE
96,"control","2085.899999856949","""","survey-text",25,180962,"0.0-6.0","5a623af135f26b0001490d53","618c31d734a04c0584457ee2","618c128dfba7721f72bf2b34",NA,"7kdkdax7utxh3g4","37",0,2376.79999995232,4,12284.8000001907,8,21739.6999998093,"Heinz","control","3","13456",1,0,0,4,0,1,2,0,0,2,0,0,2,1,7896,1,0,0,"3","6985.899999856949",1,0,0,3,"No","{""Q0"":""}","""","""","""","""",NA,NA,NA,NA,NA,NA,NA,NA,NA,1,1,1,"wrong","wrong","It's wrong but I can't think of a reason.","wrong","not wrong","wrong","wrong","wrong","wrong",TRUE,TRUE,FALSE,FALSE,FALSE,FALSE,FALSE,FALSE,0,TRUE,2,"unstated","2","2","2","no reason","unstated","2","2","2",FALSE
288,"cog_load","22131.299999999115","debriefing_form.html","external-html",54,420215,"0.0-7.0","5a65fce6b9e3b50001a71266","618c41f1ebbba48f6bea4ce8","618c128dfba7721f72bf2b33",NA,"thsbgf2r58pnvfd","45",0,1587.49999999964,4,31449.0000000005,8,26797.6999999992,"Jennifer","cog_load","1","10538.000000000466",1,0,0,3,0,0,0,0,0,0,0,0,0,2,8987.39999999997,1,0,0,"1","8844.900000000081",1,0,0,6,"No","""","""","""","""","""",0,1,0,0,"1","2","Humans are not supposed to eat other humans.:Also, the person had not given agreement to be consumed as piece of meat after dying. Allnd, she was vegan (but that's beside the point)","1",1,1,1,1,"wrong","wrong","It's wrong and I can provide a valid reason.","wrong","wrong","wrong","wrong","wrong","wrong",FALSE,FALSE,FALSE,FALSE,FALSE,FALSE,FALSE,FALSE,0,FALSE,0,"unstated","reason","reason","reason","reason","unstated","reason","reason","reason",TRUE
