"run_id","condition","rt","url","trial_type","trial_index","time_elapsed","internal_node_id","PROLIFIC_PID","STUDY_ID","SESSION_ID","subject","age","gender","gender_rt","attention_check2","attention_check2_rt","cog_practice","CS_rt","cog_practice1","cog_practice2","cog_practice3","cog_load_response8","attention_check1","attention_check1_rt","scenario","test_condition","InJu1","InJu1_rt","InJu1_trial1","InJu1_trial2","InJu1_trial3","cog_load_response0","responses","stimulus","button_pressed","key_press","response","conf1","ca1","sw1","rsn1","ca2","sw2","rsn2","ca3","sw3","rsn3","CS","CS_trial1","CS_trial2","CS_trial3","InJu2","InJu2_rt","InJu2_trial1","InJu2_trial2","InJu2_trial3","cog_load_response5","conf2","previous_experience","reason","gender_other","preview","country","cog_practice_trial_number","InJu1_trial_number","CS_trial_number","InJu2_trial_number","Ju1_bin","Ju2_bin","InCS","j1","j2","j3","j4","j5","j6","ch1","ch2","ch3","ch4","ch5","Rch1","Rch2","Rs_changed","Rs_changed_tot","changed","changed_tot","rs1","rs2","rs3","rs4","rs5","rs6","rs1_bin","rs2_bin","rs3_bin","reason_always"
705,"cog_load","4898","debriefing_form.html","external-html",54,321847,"0.0-7.0","54a7516dfdf99b7cd759d22b","618b9cbf713205f8e1c56ef0","618c253efddd689f3def1701","69gl8t89nf04fpy","46",0,1558.39999997616,1,15370.1000000238,"1","10192.800000011921",1,0,0,"1",8,10830.8000000119,"Incest","cog_load",1,"17955.400000035763",1,0,0,"`1","""","""","""","""","""",6,0,1,1,0,0,0,0,0,1,"2",1,0,0,1,"6629.399999976158",1,0,0,"1",7,"no","morally, it is wrong",NA,NA,"US",1,1,1,1,"wrong","wrong","It's wrong and I can provide a valid reason.","wrong","not wrong","wrong","wrong","wrong","wrong",TRUE,TRUE,FALSE,FALSE,FALSE,TRUE,TRUE,TRUE,2,TRUE,2,"unstated","no reason","reason","no reason","reason","unstated","no reason","reason","no reason",FALSE
349,"cog_load","1770.1000000014901","debriefing_form.html","external-html",67,334447,"0.0-7.0","558afc18fdf99b7dfef4d84e","618b9cbf713205f8e1c56eef","618bf9ec288394863fcde5ba","vnu7lbvyn5kmf4z","32",1,1146.19999999925,1,11429.6000000015,"2","14553.700000001118",1,0,0,"1",8,18777.7000000011,"Trolley","cog_load",4,"5890.0999999996275",0,0,3,"3","""","""","""","""","""",6,0,1,1,0,1,1,0,1,2,"0",1,0,0,4,"13352.300000000745",1,0,0,"1",6,"no",NA,NA,NA,"US",1,3,1,1,"neutral","neutral","There is nothing wrong.","not wrong","not wrong","not wrong","not wrong","not wrong","not wrong",FALSE,FALSE,FALSE,FALSE,FALSE,FALSE,TRUE,TRUE,1,FALSE,0,"unstated","no reason","no reason","2","unstated","unstated","no reason","no reason","2",FALSE
879,"control","5041.700000047684","""","html-slider-response",11,125449,"0.0-4.0-3.0-3.0","559d9916fdf99b1e2b2dc6b8","618b9cbf713205f8e1c56f02","618c4799d399455893297a3a","c73yubqyx0m3vo8","68",0,2164.79999995232,1,25187.4000000954,NA,NA,NA,NA,NA,NA,8,20071.7999999523,"Incest","control",1,"6182.099999904633",1,0,0,NA,"""","<p>How confident are you about your judgement?</p><p>(1 = Not at all Confident; 7 = Extremely Confident)</p>","""","""","7",7,NA,NA,NA,NA,NA,NA,NA,NA,NA,NA,NA,NA,NA,NA,NA,NA,NA,NA,NA,NA,NA,NA,NA,NA,"US",NA,1,NA,NA,"wrong",NA,NA,"wrong",NA,NA,NA,NA,NA,NA,NA,NA,NA,NA,NA,NA,NA,NA,NA,NA,"unstated",NA,NA,NA,NA,"unstated",NA,NA,NA,NA
782,"cog_load","null","""","html-slider-response",38,272682,"0.0-4.0-1.0-4.0-2.0-2.0","55aa6c2ffdf99b632940aaaa","618b9cbf713205f8e1c56f02","618c3306327fe2dc3bb66dbb","xl1uo6eoloaynka","84",0,2380.89999997616,1,17922.5,"1","7271.600000023842",1,0,0,"2",8,33428.1000000238,"Incest","cog_load",NA,"null",0,0,3,NA,"""","<video autoplay muted><source src='video/num_scroll_test8.mp4' type='video/mp4'></video><br><p>How would you rate the behaviour of Julie and Mark?</p><p>(1 = Morally Wrong; and 7 = Morally Right)</p>","""","""","null",NA,NA,NA,NA,NA,NA,NA,NA,NA,NA,NA,NA,NA,NA,NA,NA,NA,NA,NA,NA,NA,NA,NA,NA,NA,"US",1,3,NA,NA,"null",NA,NA,"null",NA,NA,NA,NA,NA,NA,NA,NA,NA,NA,NA,NA,NA,NA,NA,NA,"unstated",NA,NA,NA,NA,"unstated",NA,NA,NA,NA
864,"cog_load","10009.699999999255","""","survey-text",60,1034642,"0.0-6.0","55b0eabffdf99b2228330785","618b9cbf713205f8e1c56f02","618c41e391b1733eea1f2e42","6husm71n0gmds24","67",0,1621.80000000075,1,8871.09999999776,"2","18042.5",1,0,0,"1",8,6705.70000000298,"Jennifer","cog_load",7,"4106",0,2,0,"3","{""Q0"":""none""}","""","""","""","""",5,0,0,0,0,0,0,0,0,0,"2",1,0,0,1,"18262.10000000149",1,0,0,"0",6,"I don't think so.","Jennifer wasn't starving.  She was already a vegetarian.  There was absolutely NO reason for her to eat the flesh of another human being.",NA,NA,"US",1,2,1,1,"right","wrong","It's wrong and I can provide a valid reason.","not wrong","wrong","wrong","wrong","wrong","wrong",TRUE,FALSE,FALSE,FALSE,FALSE,FALSE,FALSE,FALSE,0,TRUE,1,"unstated","reason","reason","reason","reason","unstated","reason","reason","reason",TRUE
681,"cog_load","52914.09999999404","debriefing_form.html","external-html",54,487719,"0.0-7.0","55bfa58afdf99b339da508c2","618b9cbf713205f8e1c56f02","618c21cf10c21af63433f639","q45qd15x9bd2zwt","58",0,3372.90000000596,1,35046.3000000119,"0","5043.20000000298",1,0,0,"1",8,15765.799999997,"Jennifer","cog_load",1,"5291.5",1,0,0,"2","""","""","""","""","""",4,0,0,0,0,0,0,1,0,0,"2",1,0,0,1,"4497.0999999940395",1,0,0,"1",5,"no","If she's a vegetarian for moral reasons, then eating the dead flesh of a human is equally as wrong as that of an animal, regardless of how the person died.",NA,NA,"US",1,1,1,1,"wrong","wrong","It's wrong and I can provide a valid reason.","wrong","wrong","wrong","wrong","wrong","wrong",FALSE,FALSE,FALSE,FALSE,FALSE,FALSE,FALSE,FALSE,0,FALSE,0,"unstated","reason","reason","reason","reason","unstated","reason","reason","reason",TRUE
772,"cog_load","3496","""","survey-text",53,286032,"0.0-6.0","55cfefc334e9060012e573c0","618b9cbf713205f8e1c56efc","618c2edf0897e9a4992f2176","6wgmwdvowbjagz5","67",1,1592,1,26913,"1","4798.999999999971",1,0,0,"0",8,14218,"Heinz","cog_load",1,"9172",1,0,0,"1","{""Q0"":""no""}","""","""","""","""",6,0,0,0,0,1,0,0,1,0,"2",1,0,0,1,"6863",1,0,0,"0",6,"No","He doesn’t have to make such a big profit",NA,NA,"US",1,1,1,1,"wrong","wrong","It's wrong and I can provide a valid reason.","wrong","wrong","not wrong","not wrong","wrong","wrong",FALSE,TRUE,FALSE,TRUE,FALSE,FALSE,FALSE,FALSE,0,TRUE,2,"unstated","reason","reason","reason","reason","unstated","reason","reason","reason",TRUE
669,"control","7736.899999976158","debriefing_form.html","external-html",27,186870,"0.0-7.0","5615777c7ffc8a000a811c61","618b9cbf713205f8e1c56efc","618c1fab8801bc7ce2b36b36","jcpvcqhd9twp7no","60",1,1611.79999995232,1,4812.89999997616,NA,"5559.700000047684",NA,NA,NA,NA,8,10166.6000000238,"Heinz","control",2,"5545",1,0,0,NA,"""","""","""","""","""",6,0,0,0,0,1,0,0,1,0,"2",1,0,0,2,"5729.100000023842",1,0,0,NA,7,"yes, pretty common on mturk and prolific","it's wrong not to help save someone's life. Druggist could have offered payment plan, barter, etc. He was taking advantage. No one should refuse someone else lifesaving medication",NA,NA,"US",NA,1,1,1,"wrong","wrong","It's wrong and I can provide a valid reason.","wrong","wrong","not wrong","not wrong","wrong","wrong",FALSE,TRUE,FALSE,TRUE,FALSE,FALSE,FALSE,FALSE,0,TRUE,2,"unstated","reason","reason","reason","reason","unstated","reason","reason","reason",TRUE
908,"control","7212.39999999851","debriefing_form.html","external-html",27,314830,"0.0-7.0","5662218473ac8700058095b1","618b9cbf713205f8e1c56efc","618c4ba3f6d4a26719a55bd3","l2ta12fy5z0q5qh","63",1,1683.39999999851,1,14146.1999999955,NA,"7411.60000000149",NA,NA,NA,NA,8,17971.3999999985,"Heinz","control",1,"8275.29999999702",1,0,0,NA,"""","""","""","""","""",2,0,1,0,0,1,0,0,1,0,"2",1,0,0,1,"5745.39999999851",1,0,0,NA,3,"No.","The premis that the druggist needs to make a living is faulty. While it is true, the taking of the drug does not mean the druggist is unable to make a living. It means his living is not as affluent as he would like it to be. The degredation of the druggist lifestyle does not justify the death of Heinz's wife.",NA,NA,"US",NA,1,1,1,"wrong","wrong","It's wrong and I can provide a valid reason.","wrong","not wrong","not wrong","not wrong","wrong","wrong",TRUE,FALSE,FALSE,TRUE,FALSE,FALSE,FALSE,FALSE,0,TRUE,2,"unstated","reason","reason","reason","reason","unstated","reason","reason","reason",TRUE
711,"cog_load","24588.799999952316","debriefing_form.html","external-html",54,288601,"0.0-7.0","56e95c069eb018000a3c2110","618b9cbf713205f8e1c56f02","618c25cc3eb47bafbe1f2b66","v6qtr4k951gqkol","60",0,1268.70000004768,1,11149.2999999523,"0","3377.8000000715256",1,0,0,"1",8,5516.39999997616,"Trolley","cog_load",1,"7773.899999976158",1,0,0,"1","""","""","""","""","""",6,0,1,0,0,1,0,0,0,0,"2",1,0,0,1,"3996.2000000476837",1,0,0,"1",6,"Sort of. Versions of the trolley problem are all over the internet. Never saw a version that involved pushing a fat person, though","Paul committed murder to save someone else's life. The fat man was innocent. Human life can't be quantified and weighed out, like 5 to 1. Murdering people is wrong, period.",NA,NA,"US",1,1,1,1,"wrong","wrong","It's wrong and I can provide a valid reason.","wrong","not wrong","not wrong","wrong","wrong","wrong",TRUE,FALSE,TRUE,FALSE,FALSE,FALSE,FALSE,FALSE,0,TRUE,2,"unstated","reason","reason","reason","reason","unstated","reason","reason","reason",TRUE
38,"control","19786","debriefing_form.html","external-html",27,196077,"0.0-7.0","56f2ad34ed0cf6000691331f","618b9cbf713205f8e1c56f1c","618bbd5fe17df900c517aaad","z1vzgndwj9n5a8k","45",0,2771.29999999702,1,11772.5,NA,"4500.79999999702",NA,NA,NA,NA,8,11690.5,"Incest","control",1,"5671.79999999702",1,0,0,NA,"""","""","""","""","""",7,0,0,0,0,0,0,1,0,0,"2",1,0,0,1,"3259.199999988079",1,0,0,NA,7,"no","they are brother and sister",NA,NA,"US",NA,1,1,1,"wrong","wrong","It's wrong and I can provide a valid reason.","wrong","wrong","wrong","wrong","wrong","wrong",FALSE,FALSE,FALSE,FALSE,FALSE,FALSE,FALSE,FALSE,0,FALSE,0,"unstated","reason","reason","reason","reason","unstated","reason","reason","reason",TRUE
614,"control","38350","debriefing_form.html","external-html",27,568725,"0.0-7.0","571c944ee1d2ec0012a68677","618b9cbf713205f8e1c56f02","618c18325b7b0a1f28b7b487","r5d4rzc6scclt5l","61",0,1968,1,19214,NA,"7866",NA,NA,NA,NA,8,31361,"Jennifer","control",1,"8644",1,0,0,NA,"""","""","""","""","""",7,0,0,0,0,0,0,0,0,0,"2",1,0,0,1,"6029",1,0,0,NA,7,"No.","The deceased person donated their body for scientific study; they did not agree to be anyone's meal.  Jennifer did not have authorization for what she did and she treated the deceased person's body without respect in an unethical fashion.",NA,NA,"US",NA,1,1,1,"wrong","wrong","It's wrong and I can provide a valid reason.","wrong","wrong","wrong","wrong","wrong","wrong",FALSE,FALSE,FALSE,FALSE,FALSE,FALSE,FALSE,FALSE,0,FALSE,0,"unstated","reason","reason","reason","reason","unstated","reason","reason","reason",TRUE
952,"control","2656.300000011921","debriefing_form.html","external-html",27,251476,"0.0-7.0","57223b1c01ed330011374d93","618b9cbf713205f8e1c56efc","618c60069264df6ccc8f9931","2otc97fntsct64b","62",1,2830.29999999702,1,6387.89999999106,NA,"5759.699999988079",NA,NA,NA,NA,8,16418.8000000119,"Heinz","control",4,"12729",1,0,0,NA,"""","""","""","""","""",5,0,1,0,0,1,0,0,0,0,"2",1,0,0,1,"3025.0999999940395",1,0,0,NA,7,"no","Someone was dying and he could get paid later",NA,NA,"US",NA,1,1,1,"neutral","wrong","It's wrong and I can provide a valid reason.","not wrong","not wrong","not wrong","wrong","wrong","wrong",FALSE,FALSE,TRUE,FALSE,FALSE,FALSE,FALSE,FALSE,0,TRUE,1,"unstated","reason","reason","reason","reason","unstated","reason","reason","reason",TRUE
566,"cog_load","2509.800000011921","""","survey-text",67,385952,"0.0-6.0","5727d93522e522000e7a0a3c","618b9cbf713205f8e1c56f05","618c110386102b520bffb353","g64mgrllzu466hr","50",1,1421.79999998212,1,14238.599999994,"2","13955.09999999404",0,2,0,"1",8,21074.599999994,"Heinz","cog_load",1,"7253.5",0,2,0,"3","{""Q0"":""}","""","""","""","""",5,0,0,0,0,1,0,0,1,0,"2",1,0,0,1,"18871.30000001192",1,0,0,"2",2,"no","Because someones life was in jeopardy",NA,NA,"US",2,2,1,1,"wrong","wrong","It's wrong and I can provide a valid reason.","wrong","wrong","not wrong","not wrong","wrong","wrong",FALSE,TRUE,FALSE,TRUE,FALSE,FALSE,FALSE,FALSE,0,TRUE,2,"unstated","reason","reason","reason","reason","unstated","reason","reason","reason",TRUE
13,"control","4023.900000002235","""","survey-text",25,229074,"0.0-6.0","572897d52865c40008423b21","618af29e6b50937ab4a5aa96","618b0a5ac13ece31154949c7","6hzv2z0vyu34dqv","38",0,1713.40000000224,1,19232.9000000022,NA,"9056.5",NA,NA,NA,NA,8,36051.5999999978,"Jennifer","control",1,"4904.5",1,0,0,NA,"{""Q0"":""No""}","""","""","""","""",7,1,0,1,0,0,1,1,0,1,"1",1,0,0,1,"5116.60000000149",1,0,0,NA,7,"No",NA,NA,NA,"US",NA,1,1,1,"wrong","wrong","It's wrong but I can't think of a reason.","wrong","wrong","wrong","wrong","wrong","wrong",FALSE,FALSE,FALSE,FALSE,FALSE,FALSE,FALSE,FALSE,0,FALSE,0,"unstated","no reason","no reason","no reason","no reason","unstated","no reason","no reason","no reason",FALSE
387,NA,"4288.30000000447","""","html-button-response",12,78591,"0.0-4.0-0.0-0.0-4.0-0.0","57509b61d6edf00006ff7fcb","618b9cbf713205f8e1c56ef4","618bfc820e052eb2015e7e4f","gdn1fw64539jkce","55",0,1344.89999999851,1,5410.30000000447,"1","4288.30000000447",1,0,0,NA,NA,NA,NA,NA,NA,NA,NA,NA,NA,NA,"""","<p><b>Example</b></p><video autoplay muted><source src='video/num_scroll_test9.mp4' type='video/mp4'></video><br><p>Do you find multi-tasking difficult?</p>","1","""",NA,NA,NA,NA,NA,NA,NA,NA,NA,NA,NA,NA,NA,NA,NA,NA,NA,NA,NA,NA,NA,NA,NA,NA,NA,NA,"US",1,NA,NA,NA,NA,NA,NA,NA,NA,NA,NA,NA,NA,NA,NA,NA,NA,NA,NA,NA,NA,NA,NA,NA,"unstated",NA,NA,NA,NA,"unstated",NA,NA,NA,NA
445,"cog_load","2494.2000000001863","debriefing_form.html","external-html",54,209427,"0.0-7.0","5758a211cb13810006479a0d","618b9cbf713205f8e1c56f05","618c05ad00dcfdcb20324cd7","utmg4h3zfrtvp7n","57",1,3484.70000000019,1,7757.70000000019,"1","5665.0999999996275",1,0,0,"1",8,12352.5999999996,"Heinz","cog_load",1,"5537.5",1,0,0,"2","""","""","""","""","""",7,0,0,0,0,0,0,0,0,0,"2",1,0,0,1,"6237.199999999255",1,0,0,"1",7,"no","2",NA,NA,"US",1,1,1,1,"wrong","wrong","It's wrong and I can provide a valid reason.","wrong","wrong","wrong","wrong","wrong","wrong",FALSE,FALSE,FALSE,FALSE,FALSE,FALSE,FALSE,FALSE,0,FALSE,0,"unstated","reason","reason","reason","reason","unstated","reason","reason","reason",TRUE
497,"control","53868.09999990463","debriefing_form.html","external-html",26,389022,"0.0-7.0","57901c44900cc80001d2e9c7","618b9cbf713205f8e1c56ef4","618c0b405b2a6f03bc51041f","r3e1lkbabba7u6o","57901c44900cc80001d2e9c7",0,2797.59999990463,1,22348.0999999046,NA,"11879.099999904633",NA,NA,NA,NA,8,34228,"Jennifer","control",3,"16655.099999904633",1,0,0,NA,"""","""","""","""","""",4,0,0,2,0,0,2,0,0,2,"1",1,0,0,4,"22786.700000286102",1,0,0,NA,3,"No",NA,NA,NA,"US",NA,1,1,1,"wrong","neutral","It's wrong but I can't think of a reason.","wrong","wrong","wrong","wrong","wrong","not wrong",FALSE,FALSE,FALSE,FALSE,TRUE,FALSE,FALSE,FALSE,0,TRUE,1,"unstated","2","2","2","no reason","unstated","2","2","2",FALSE
726,"cog_load","5740.89999961853","""","survey-text",59,278769,"0.0-6.0","57ac740478a38d00017cce22","618b9cbf713205f8e1c56f02","618c277d3541ff5a8ffc9f0a","pz5pfhuas6g7kah","61",0,1662,4,8482.09999990463,"2","4993.299999713898",0,2,0,"1",8,6158.30000019073,"Jennifer","cog_load",1,"9676",1,0,0,"q","{""Q0"":""no""}","""","""","""","""",6,0,0,1,0,0,1,1,0,1,"1",1,0,0,1,"6901.599999904633",1,0,0,"1",6,"no",NA,NA,NA,"US",2,1,1,1,"wrong","wrong","It's wrong but I can't think of a reason.","wrong","wrong","wrong","wrong","wrong","wrong",FALSE,FALSE,FALSE,FALSE,FALSE,FALSE,FALSE,FALSE,0,FALSE,0,"unstated","no reason","no reason","no reason","no reason","unstated","no reason","no reason","no reason",FALSE
110,"control","1327.199999988079","debriefing_form.html","external-html",27,339586,"0.0-7.0","57b4abf0f0ed6e0001517979","618b9cbf713205f8e1c56f0d","618bd8f4647dec436c0265fb","zgol8jdqhyaxoal","27",1,1372.80000001192,1,10737.5,NA,"31584",NA,NA,NA,NA,8,24948,"Heinz","control",1,"4574.699999988079",1,0,0,NA,"""","""","""","""","""",7,0,0,0,0,0,0,0,1,0,"2",1,0,0,1,"3375.5",1,0,0,NA,7,"No","The druggist needs to protect his livelihood, yes, but if can protect his livelihood by selling the life-saving drug for less than 10x the amount it took to create it, then I believe it is morally wrong for him to deny access to something that could save a life simply because he isn't making the money he WANTS to make.",NA,NA,"US",NA,1,1,1,"wrong","wrong","It's wrong and I can provide a valid reason.","wrong","wrong","wrong","not wrong","wrong","wrong",FALSE,FALSE,TRUE,TRUE,FALSE,FALSE,FALSE,FALSE,0,TRUE,2,"unstated","reason","reason","reason","reason","unstated","reason","reason","reason",TRUE
360,"cog_load","10719.799999952316","debriefing_form.html","external-html",54,331856,"0.0-7.0","57bca845e2101600015e8e88","618b9cbf713205f8e1c56f0c","618bfab0da95bd61d5c1b203","hfb7alw2a0c2xdm","27",1,1120.70000004768,4,13925.7999999523,"1","10582.899999856949",1,0,0,"1",8,22445.1999998093,"Trolley","cog_load",5,"10937.200000047684",1,0,0,"4","""","""","""","""","""",2,0,0,2,0,0,0,0,1,0,"2",1,0,0,3,"10926.5",1,0,0,"1",3,"I've seen variations of the trolley problem before. Usually with pulling a lever to redirect the trolley instead of pushing someone in front of it.","Paul had to murder an innocent man in order to stop the trolley. Murder is wrong.",NA,NA,"US",1,1,1,1,"right","wrong","It's wrong and I can provide a valid reason.","not wrong","wrong","wrong","not wrong","wrong","wrong",TRUE,FALSE,TRUE,TRUE,FALSE,TRUE,FALSE,TRUE,1,TRUE,3,"unstated","2","reason","reason","reason","unstated","2","reason","reason",FALSE
314,"control","5399.900000095367","""","survey-text",24,152263,"0.0-5.0","57ceec6cfd01b20001d0251d","618b9cbf713205f8e1c56ef6","618bf5a1d844c88dd91038c5","aouy3wnvfsp4mel","32",0,1148.60000014305,4,7469.70000004768,NA,"2846.9000000953674",NA,NA,NA,NA,8,12543.6000001431,"Jennifer","control",1,"3139.4000000953674",1,0,0,NA,"{""Q0"":""no""}","""","""","""","""",6,0,0,2,0,0,1,0,1,2,"1",1,0,0,2,"2934.7000000476837",1,0,0,NA,5,"no",NA,NA,NA,"US",NA,1,1,1,"wrong","wrong","It's wrong but I can't think of a reason.","wrong","wrong","wrong","not wrong","wrong","wrong",FALSE,FALSE,TRUE,TRUE,FALSE,TRUE,TRUE,TRUE,2,TRUE,2,"unstated","2","no reason","2","no reason","unstated","2","no reason","2",FALSE
745,"control","29382.10000000149","""","survey-text",25,251802,"0.0-6.0","57d70b2247180e0001f100e3","618b9cbf713205f8e1c56f0e","618c2a3b66c25d1501626cbc","a4qsgn2aqgq5zts","39",1,1237.80000000075,1,7910.89999999851,NA,"7406.800000000745",NA,NA,NA,NA,8,43153,"Incest","control",5,"4245.60000000149",1,0,0,NA,"{""Q0"":""They could be hurting others but unsure.""}","""","""","""","""",3,0,1,0,0,1,0,1,1,1,"0",1,0,0,3,"7749.199999999255",1,0,0,NA,5,"No",NA,NA,NA,"US",NA,1,1,1,"right","wrong","There is nothing wrong.","not wrong","not wrong","not wrong","not wrong","not wrong","wrong",FALSE,FALSE,FALSE,FALSE,TRUE,FALSE,TRUE,TRUE,1,TRUE,1,"unstated","reason","reason","no reason","unstated","unstated","reason","reason","no reason",FALSE
1028,"cog_load","10911.099999999627","debriefing_form.html","external-html",54,198844,"0.0-7.0","57fffa56789446000195c87e","618d7b0e0006685d8f891881","618dbec91b531e6a0fdc0032","qw3ou06rxyc259s","21",1,822.699999999255,1,5609.79999999888,"0","8350.299999998882",1,0,0,"1",8,9021.20000000112,"Heinz","cog_load",3,"12464",1,0,0,"1","""","""","""","""","""",5,0,1,0,0,0,0,0,0,0,"2",1,0,0,2,"14654.800000000745",1,0,0,"1",3,"Yes, this was introduced 2 questions ago","Livelihood has to be limited to something reasonable;earning 90% profit margins (i.e. 10x the price of the product he produces) is simply unreasonable and therefore I think the druggist is morally culpable.",NA,NA,"US",1,1,1,1,"wrong","wrong","It's wrong and I can provide a valid reason.","wrong","not wrong","wrong","wrong","wrong","wrong",TRUE,TRUE,FALSE,FALSE,FALSE,FALSE,FALSE,FALSE,0,TRUE,2,"unstated","reason","reason","reason","reason","unstated","reason","reason","reason",TRUE
928,"control","16969.600000023842","debriefing_form.html","external-html",27,334077,"0.0-7.0","580bea98827ca10001db514e","618b9cbf713205f8e1c56ef1","618c51b7021d08a17a33c5c0","tjre8pc3hk0kx48","52",1,2232.10000002384,1,11490.4000000954,NA,"13612.200000047684",NA,NA,NA,NA,8,12770.5,"Jennifer","control",2,"13412.600000023842",1,0,0,NA,"""","""","""","""","""",1,0,0,0,0,0,0,0,0,0,"2",1,0,0,2,"4835.699999928474",1,0,0,NA,6,"no.","cannibalism come to mind.",NA,NA,"US",NA,1,1,1,"wrong","wrong","It's wrong and I can provide a valid reason.","wrong","wrong","wrong","wrong","wrong","wrong",FALSE,FALSE,FALSE,FALSE,FALSE,FALSE,FALSE,FALSE,0,FALSE,0,"unstated","reason","reason","reason","reason","unstated","reason","reason","reason",TRUE
433,"control","13237.79999999702","debriefing_form.html","external-html",27,255946,"0.0-7.0","581dd1d1cccc4800017ab5c2","618b9cbf713205f8e1c56f1c","618c039f9a3fe993860faec7","6v47axd8jbxelkn","40",0,2449.70000000298,4,15986.1000000015,NA,"6038.5",NA,NA,NA,NA,8,11344.3000000045,"Heinz","control",1,"3826.7000000029802",1,0,0,NA,"""","""","""","""","""",7,0,1,0,0,1,0,0,1,0,"2",1,0,0,1,"3643",1,0,0,NA,7,"no","Because his drug was to expensive and he was so selfish at the expense of other people life or death. Human life is more worth than anything",NA,NA,"US",NA,1,1,1,"wrong","wrong","It's wrong and I can provide a valid reason.","wrong","not wrong","not wrong","not wrong","wrong","wrong",TRUE,FALSE,FALSE,TRUE,FALSE,FALSE,FALSE,FALSE,0,TRUE,2,"unstated","reason","reason","reason","reason","unstated","reason","reason","reason",TRUE
880,"control","5492","debriefing_form.html","external-html",27,268308,"0.0-7.0","582afed4ce3a0e00010b3245","618b9cbf713205f8e1c56f02","618c47b498dc5471f0675a59","h5zg20xh6c0tmbg","69",0,2127,4,25205,NA,"15411.99999999997",NA,NA,NA,NA,8,31794,"Heinz","control",2,"9159",1,0,0,NA,"""","""","""","""","""",6,0,1,2,0,1,0,0,1,0,"2",1,0,0,1,"8242.00000000003",1,0,0,NA,6,"No","He did",NA,NA,"US",NA,1,1,1,"wrong","wrong","It's wrong and I can provide a valid reason.","wrong","not wrong","not wrong","not wrong","wrong","wrong",TRUE,FALSE,FALSE,TRUE,FALSE,TRUE,FALSE,TRUE,1,TRUE,2,"unstated","2","reason","reason","reason","unstated","2","reason","reason",FALSE
9,"control","15763","""","html-button-response",21,207550,"0.0-4.0-3.0-5.0-0.0","5839a4d4fe62f500016695f1","618af29e6b50937ab4a5aa96","618b06fc96ef5624b24e776d","l71a98ap95876s8","40",1,1389,4,31627,NA,"15763",NA,NA,NA,NA,8,38000,"Incest","control",2,"6167",1,0,0,NA,"""","<p style='font-size:20px;'>Julie and Mark's behaviour did not harm anyone or negatively affect anyone.</p><p style='font-size:20px;'>How can there be anything wrong with what they did?</p>","2","""","""",5,1,0,1,0,0,0,0,0,1,"2",1,0,0,NA,NA,NA,NA,NA,NA,NA,NA,NA,NA,NA,"US",NA,1,1,NA,"wrong",NA,"It's wrong and I can provide a valid reason.","wrong","wrong","wrong","wrong","wrong",NA,FALSE,FALSE,FALSE,FALSE,NA,TRUE,TRUE,TRUE,2,NA,NA,"unstated","no reason","reason","no reason","reason","unstated","no reason","reason","no reason",FALSE
773,"cog_load","7924.70000000298","""","survey-text",60,343111,"0.0-6.0","58810bc97b21a60001758c8b","618b9cbf713205f8e1c56f02","618c2f2e4135a61816fbff8c","b2nbpxck52lgm92","58",0,1675.30000000447,1,8966.60000000149,"1","9761.79999999702",0,2,0,"1",8,21093.700000003,"Heinz","cog_load",1,"12037.79999999702",1,0,0,"3","{""Q0"":""this is hard!!""}","""","""","""","""",7,0,0,0,0,0,0,0,0,0,"2",1,0,0,2,"12734.20000000298",1,0,0,"1",5,"no","was too selfish could have reduced price or collected later",NA,NA,"US",2,1,1,1,"wrong","wrong","It's wrong and I can provide a valid reason.","wrong","wrong","wrong","wrong","wrong","wrong",FALSE,FALSE,FALSE,FALSE,FALSE,FALSE,FALSE,FALSE,0,FALSE,0,"unstated","reason","reason","reason","reason","unstated","reason","reason","reason",TRUE
396,"cog_load","4191","""","survey-text",53,291707,"0.0-6.0","5886d67b3e1f290001aa7529","618b9cbf713205f8e1c56ef0","618bfdadcf0cab433c1b3da0","bwqp16hujq96n3q","40",0,1742.80000001192,1,13081.0999999642,"0","8841.600000023842",1,0,0,"1",8,12777.8999999762,"Heinz","cog_load",2,"7402.299999952316",1,0,0,"3","{""Q0"":""no""}","""","""","""","""",6,0,1,1,0,0,0,0,0,0,"2",1,0,0,3,"11700.5",1,0,0,"1",3,"no","because the man's wife was dying -- he could have accepted half the cost since he still would have profit",NA,NA,"US",1,1,1,1,"wrong","wrong","It's wrong and I can provide a valid reason.","wrong","not wrong","wrong","wrong","wrong","wrong",TRUE,TRUE,FALSE,FALSE,FALSE,TRUE,FALSE,TRUE,1,TRUE,2,"unstated","no reason","reason","reason","reason","unstated","no reason","reason","reason",FALSE
1069,"cog_load","25071.5","""","html-button-response",28,203462,"0.0-4.0-1.0-7.0-1.0","58c06b9ca1a2470001cd1ba3","618d7b0e0006685d8f891882","618dcc92314c7ea3248394cb","o9lpltn826e1u4z","34",1,1613,1,17113,"1","6036.89999999851",1,0,0,"1",8,21540.299999997,"Incest","cog_load",2,"11165.5",1,0,0,"3","""","<p>Do you think it's wrong?</p>","1","""","""",5,0,1,NA,NA,NA,NA,NA,NA,NA,NA,NA,NA,NA,NA,NA,NA,NA,NA,NA,NA,NA,NA,NA,NA,"US",1,1,NA,NA,"wrong",NA,NA,"wrong","not wrong",NA,NA,NA,NA,TRUE,NA,NA,NA,NA,NA,NA,NA,NA,NA,NA,"unstated",NA,NA,NA,NA,"unstated",NA,NA,NA,NA
828,NA,"null","""","html-button-response",12,188708,"0.0-4.0-0.0-0.0-4.0-0.0","58cd449293499d00013488fe","618b9cbf713205f8e1c56efc","618c3c133c043c50e6d29c5b","zxrzb2pm7etdowm","59",1,1871,1,23843,"null","null",1,0,0,NA,NA,NA,NA,NA,NA,NA,NA,NA,NA,NA,"""","<p><b>Example</b></p><video autoplay muted><source src='video/num_scroll_test9.mp4' type='video/mp4'></video><br><p>Do you find multi-tasking difficult?</p>","null","""",NA,NA,NA,NA,NA,NA,NA,NA,NA,NA,NA,NA,NA,NA,NA,NA,NA,NA,NA,NA,NA,NA,NA,NA,NA,NA,"US",1,NA,NA,NA,NA,NA,NA,NA,NA,NA,NA,NA,NA,NA,NA,NA,NA,NA,NA,NA,NA,NA,NA,NA,"unstated",NA,NA,NA,NA,"unstated",NA,NA,NA,NA
706,"cog_load","2278.3000000715256","""","survey-text",59,259209,"0.0-6.0","58d7896b4240e5000118f705","618b9cbf713205f8e1c56f02","618c254fd6c1c378d2cc1274","k7qs2gypm22bw80","81",0,1630.5,1,7776.40000009537,"1","6328.800000071526",1,0,0,"0",8,12895,"Incest","cog_load",1,"5414.700000047684",0,2,0,"2","{""Q0"":""}","""","""","""","""",2,1,0,0,1,0,0,1,0,0,"1",1,0,0,1,"6144",1,0,0,"1",5,"no",NA,NA,NA,"US",1,2,1,1,"wrong","wrong","It's wrong but I can't think of a reason.","wrong","wrong","wrong","wrong","wrong","wrong",FALSE,FALSE,FALSE,FALSE,FALSE,FALSE,FALSE,FALSE,0,FALSE,0,"unstated","reason","reason","reason","no reason","unstated","reason","reason","reason",TRUE
389,"cog_load","2416.2000000029802","""","survey-text",66,286735,"0.0-6.0","58eec4b09fbdde00011e95b0","618b9cbf713205f8e1c56eeb","618bfca16bdbce20ca601f32","yx0rwlc5x62cal7","31",1,1079.09999999404,1,9741.90000000596,"2","5863.20000000298",0,2,0,"1",8,18236.8999999911,"Heinz","cog_load",3,"17139.60000000894",0,2,0,"3","{""Q0"":""no""}","""","""","""","""",3,0,0,2,0,0,1,0,0,1,"1",1,0,0,3,"5728.9000000059605",1,0,0,"1",4,"no",NA,NA,NA,"US",2,2,1,1,"wrong","wrong","It's wrong but I can't think of a reason.","wrong","wrong","wrong","wrong","wrong","wrong",FALSE,FALSE,FALSE,FALSE,FALSE,TRUE,FALSE,TRUE,1,FALSE,0,"unstated","2","no reason","no reason","no reason","unstated","2","no reason","no reason",FALSE
617,"cog_load","8541.400000035763","""","survey-text",60,318414,"0.0-6.0","58f8a76359a9d400011c263c","618b9cbf713205f8e1c56ef4","618c1898e8b3b7fdc1f0cb24","zpxrfbkdj0t3n8h","55",0,2428.5,1,11508.4000000358,"0","7542.699999988079",0,2,0,"1",8,14330.4000000358,"Incest","cog_load",2,"11734.200000047684",1,0,0,"1","{""Q0"":""no""}","""","""","""","""",6,0,0,1,0,0,1,0,0,0,"2",1,0,0,2,"8220.400000035763",1,0,0,"1",6,"no","2",NA,NA,"US",2,1,1,1,"wrong","wrong","It's wrong and I can provide a valid reason.","wrong","wrong","wrong","wrong","wrong","wrong",FALSE,FALSE,FALSE,FALSE,FALSE,FALSE,TRUE,TRUE,1,FALSE,0,"unstated","no reason","no reason","reason","reason","unstated","no reason","no reason","reason",FALSE
961,"control","2790.699999988079","debriefing_form.html","external-html",27,241278,"0.0-7.0","596c1af50e679d0001faca67","618b9cbf713205f8e1c56efe","618c7ee425a06a5875ded135","g8qed2aedwjel3c","63",0,3686.5,3,6898.40000000596,NA,"10965.199999988079",NA,NA,NA,NA,7,13647.5,"Jennifer","control",1,"6111.600000008941",1,0,0,NA,"""","""","""","""","""",6,1,0,0,0,0,0,0,0,0,"2",1,0,0,1,"4275.0999999940395",1,0,0,NA,7,"My reasoning as not changed","Dead bodiesn bodies should not be tampered with in my opinion",NA,NA,"US",NA,1,1,1,"wrong","wrong","It's wrong and I can provide a valid reason.","wrong","wrong","wrong","wrong","wrong","wrong",FALSE,FALSE,FALSE,FALSE,FALSE,FALSE,FALSE,FALSE,0,FALSE,0,"unstated","reason","reason","reason","reason","unstated","reason","reason","reason",TRUE
1023,"cog_load","4904.000000000116","""","survey-text",52,540080,"0.0-6.0","5984b73f19879100010a6d83","618d7b0e0006685d8f891882","618dbba7e06154ac7e55d8d1","gne6rltqfxe0hkd","36",0,2023,1,31736,"0","17418",1,0,0,"5",5,7840,"Trolley","cog_load",7,"18405",1,0,0,"1","{""Q0"":""no""}","""","""","""","""",7,1,0,0,0,1,0,0,1,0,"0",1,0,0,7,"15036",1,0,0,"0",7,"No",NA,NA,NA,"US",1,1,1,1,"right","right","There is nothing wrong.","not wrong","wrong","not wrong","not wrong","not wrong","not wrong",TRUE,TRUE,FALSE,FALSE,FALSE,FALSE,FALSE,FALSE,0,TRUE,2,"unstated","reason","reason","reason","unstated","unstated","reason","reason","reason",TRUE
602,"control","80334.5","debriefing_form.html","external-html",27,619931,"0.0-7.0","5984f1344473ce00015b9277","618b9cbf713205f8e1c56ef0","618c1661beae31612c2ddefc","vfkeknxfjx1uhnl","44",0,2058.19999999925,1,20579.4000000004,NA,"14523.700000001118",NA,NA,NA,NA,8,43275,"Incest","control",1,"9107.900000000373",1,0,0,NA,"""","""","""","""","""",7,0,1,0,0,0,0,1,0,0,"2",1,0,0,1,"7838.699999999255",1,0,0,NA,7,"No","It is wrong for Julie and Mark to have sex with each other because they are brother and sister. That makes their actions to be incest, which is wrong and disgusting. on all kinds of levels.",NA,NA,"US",NA,1,1,1,"wrong","wrong","It's wrong and I can provide a valid reason.","wrong","not wrong","wrong","wrong","wrong","wrong",TRUE,TRUE,FALSE,FALSE,FALSE,FALSE,FALSE,FALSE,0,TRUE,2,"unstated","reason","reason","reason","reason","unstated","reason","reason","reason",TRUE
161,"cog_load","9645.5","debriefing_form.html","external-html",61,336379,"0.0-7.0","599da6c05a2c6c0001322a54","618b9cbf713205f8e1c56ef7","618be1aa7891001e2d0b22be","qz5094lhaz227fe","33",1,1255.80000001192,1,14276.7000000477,"2","7310.900000035763",0,2,0,"1",8,20212.1999999881,"Heinz","cog_load",1,"10078.199999988079",1,0,0,"3","""","""","""","""","""",3,0,1,0,0,1,0,0,1,0,"2",1,0,0,2,"9132.300000011921",1,0,0,"1",6,"No","The value of a human life is worth more than a fee for discovering a cure. It is in the public interest for it to be available, while still compensating the inventor/discoverer.",NA,NA,"US",2,1,1,1,"wrong","wrong","It's wrong and I can provide a valid reason.","wrong","not wrong","not wrong","not wrong","wrong","wrong",TRUE,FALSE,FALSE,TRUE,FALSE,FALSE,FALSE,FALSE,0,TRUE,2,"unstated","reason","reason","reason","reason","unstated","reason","reason","reason",TRUE
288,"control","4187","""","survey-text",26,1841862,"0.0-6.0","59b65c110516f6000197c455","618b9cbf713205f8e1c56f1c","618bf292dde09c1f4ded981b","h4bnxnszb846rpb","47",0,1974,1,54408,NA,"10933",NA,NA,NA,NA,8,52017,"Jennifer","control",1,"15196",1,0,0,NA,"{""Q0"":""}","""","""","""","""",7,0,1,2,0,1,0,1,0,0,"2",1,0,0,1,"8748.000000000116",1,0,0,NA,7,"No","Humans do not eat other humans",NA,NA,"US",NA,1,1,1,"wrong","wrong","It's wrong and I can provide a valid reason.","wrong","not wrong","not wrong","wrong","wrong","wrong",TRUE,FALSE,TRUE,FALSE,FALSE,TRUE,FALSE,TRUE,1,TRUE,2,"unstated","2","reason","reason","reason","unstated","2","reason","reason",FALSE
959,"control","4668.19999999553","debriefing_form.html","external-html",27,220627,"0.0-7.0","59c0782e5364260001dc4740","618b9cbf713205f8e1c56efe","618c75cd96d8d2bd7f4edfc2","6xldz91b5dpzmmx","58",0,2162.5,1,15935.5,NA,"9426.19999999553",NA,NA,NA,NA,8,16067.1000000015,"Jennifer","control",1,"5864.10000000149",1,0,0,NA,"""","""","""","""","""",7,0,0,0,0,0,0,0,0,0,"2",1,0,0,1,"5402.5",1,0,0,NA,7,"no","Human body parts should not be consumed",NA,NA,"US",NA,1,1,1,"wrong","wrong","It's wrong and I can provide a valid reason.","wrong","wrong","wrong","wrong","wrong","wrong",FALSE,FALSE,FALSE,FALSE,FALSE,FALSE,FALSE,FALSE,0,FALSE,0,"unstated","reason","reason","reason","reason","unstated","reason","reason","reason",TRUE
601,"control","2864","debriefing_form.html","external-html",27,255231,"0.0-7.0","59c0b12bcb3cd4000101cd75","618b9cbf713205f8e1c56ef4","618c15f9de65ef890765b401","l75hff3z72mxmze","50",0,1509.99999999999,4,24991,NA,"10113",NA,NA,NA,NA,8,20240,"Trolley","control",2,"24847",1,0,0,NA,"""","""","""","""","""",6,1,0,0,1,0,0,1,0,0,"2",1,0,0,2,"4697",1,0,0,NA,6,"No","A fat man is not enough to stop a trolley. Paul could have yelled at the people to get off the tracks.",NA,NA,"US",NA,1,1,1,"wrong","wrong","It's wrong and I can provide a valid reason.","wrong","wrong","wrong","wrong","wrong","wrong",FALSE,FALSE,FALSE,FALSE,FALSE,FALSE,FALSE,FALSE,0,FALSE,0,"unstated","reason","reason","reason","reason","unstated","reason","reason","reason",TRUE
994,"control","3199.699999988079","debriefing_form.html","external-html",27,192716,"0.0-7.0","59f66d8f7086f8000194141c","618d7b0e0006685d8f891881","618da2f8b7a74d4712d85ab3","pgnkc5zxrlppj0t","21",2,1712.19999998808,1,14863.8000000119,NA,"7260.0999999940395",NA,NA,NA,NA,8,26317.1999999881,"Heinz","control",1,"5954.799999982119",1,0,0,NA,"""","""","""","""","""",7,0,0,1,0,1,0,0,1,0,"2",1,0,0,1,"2888.7999999821186",1,0,0,NA,7,"No","Druggist was overcharging for the medication",NA,NA,"US",NA,1,1,1,"wrong","wrong","It's wrong and I can provide a valid reason.","wrong","wrong","not wrong","not wrong","wrong","wrong",FALSE,TRUE,FALSE,TRUE,FALSE,TRUE,FALSE,TRUE,1,TRUE,2,"unstated","no reason","reason","reason","reason","unstated","no reason","reason","reason",FALSE
940,"cog_load","3241.0999999940395","debriefing_form.html","external-html",54,236530,"0.0-7.0","5a0efb83ab721b0001ef8509","618b9cbf713205f8e1c56efc","618c57c2cb77e15f2a7f4f56","q24oznz37rhpq1s","67",1,2095.39999999106,1,6484,"2","7275.5999999940395",1,0,0,"0",8,8219.90000000596,"Heinz","cog_load",4,"14658.59999999404",1,0,0,"3","""","""","""","""","""",6,0,0,2,1,0,0,0,0,0,"2",1,0,0,3,"4333.0999999940395",1,0,0,"1",6,"no","it is wrong to steal",NA,NA,"US",1,1,1,1,"neutral","wrong","It's wrong and I can provide a valid reason.","not wrong","wrong","wrong","wrong","wrong","wrong",TRUE,FALSE,FALSE,FALSE,FALSE,TRUE,FALSE,TRUE,1,TRUE,1,"unstated","2","reason","reason","reason","unstated","2","reason","reason",FALSE
403,"cog_load","29252.199999928474","""","survey-text",53,265524,"0.0-6.0","5a287d4a53fc4b000141514f","618b9cbf713205f8e1c56ef4","618bfef634d28729768784e5","enys4uhr1b2crws","56",0,1711.59999990463,4,11549.3999999762,"0","9314.299999952316",1,0,0,"1",8,18247.5,"Trolley","cog_load",2,"7727.200000047684",1,0,0,"1","{""Q0"":""I think it is wrong for him to choose to kill this man....he is going to have to live with that and not leave the 5 people to the death they were already going to have.""}","""","""","""","""",3,0,1,0,0,0,0,0,0,0,"2",1,0,0,3,"5803.799999952316",1,0,0,"1",3,"no","1",NA,NA,"US",1,1,1,1,"wrong","wrong","It's wrong and I can provide a valid reason.","wrong","not wrong","wrong","wrong","wrong","wrong",TRUE,TRUE,FALSE,FALSE,FALSE,FALSE,FALSE,FALSE,0,TRUE,2,"unstated","reason","reason","reason","reason","unstated","reason","reason","reason",TRUE
401,"cog_load","3317.300000190735","""","survey-text",59,198719,"0.0-6.0","5a4c358dac413f0001e608b5","618b9cbf713205f8e1c56ef7","618bfe24fdcc098cfd868553","6af4rlofjnupacx","37",1,2079.19999980927,1,11895.0999994278,"2","6843.800000190735",0,2,0,"1",8,8629,"Heinz","cog_load",1,"10131.60000038147",1,0,0,"2","{""Q0"":""No""}","""","""","""","""",7,0,1,0,0,1,0,0,1,0,"0",1,0,0,1,"5419.5",1,0,0,"1",7,"No",NA,NA,NA,"US",2,1,1,1,"wrong","wrong","There is nothing wrong.","wrong","not wrong","not wrong","not wrong","not wrong","wrong",TRUE,FALSE,FALSE,FALSE,TRUE,FALSE,FALSE,FALSE,0,TRUE,2,"unstated","reason","reason","reason","unstated","unstated","reason","reason","reason",TRUE
885,"cog_load","7618","""","survey-text",53,979978,"0.0-6.0","5a4d33d40b81780001302fce","618b9cbf713205f8e1c56f05","618c4889461ff75d5051edb5","bgqup2c6gkrt8gt","48",1,53276,1,42473,"1","11917",1,0,0,"0",8,32209,"Heinz","cog_load",5,"15466",1,0,0,"1","{""Q0"":""no""}","""","""","""","""",3,1,0,0,0,0,0,0,0,0,"2",1,0,0,4,"19486.999999999884",1,0,0,"1",4,"No","The end does not justify the means",NA,NA,"US",1,1,1,1,"right","neutral","It's wrong and I can provide a valid reason.","not wrong","wrong","wrong","wrong","wrong","not wrong",TRUE,FALSE,FALSE,FALSE,TRUE,FALSE,FALSE,FALSE,0,TRUE,2,"unstated","reason","reason","reason","reason","unstated","reason","reason","reason",TRUE
770,"cog_load","6191.600000000093","""","survey-text",52,246344,"0.0-6.0","5a4d451cc64cfe00011ca3ad","618b9cbf713205f8e1c56f03","618c2eb68434f2a8e40dddb8","at87gpjrzr1j4y7","31",1,2558.39999999991,1,28016.3000000003,"1","5245.100000000093",1,0,0,"1",8,10076.6999999997,"Jennifer","cog_load",1,"7837.899999999907",1,0,0,"2","{""Q0"":""N/A""}","""","""","""","""",7,0,0,1,0,0,1,1,0,1,"1",1,0,0,1,"4524.300000000279",1,0,0,"1",7,"N/A",NA,NA,NA,"US",1,1,1,1,"wrong","wrong","It's wrong but I can't think of a reason.","wrong","wrong","wrong","wrong","wrong","wrong",FALSE,FALSE,FALSE,FALSE,FALSE,FALSE,FALSE,FALSE,0,FALSE,0,"unstated","no reason","no reason","no reason","no reason","unstated","no reason","no reason","no reason",FALSE
956,"cog_load","1359.1000000238419","""","survey-text",52,202906,"0.0-6.0","5a5da588f6c51700019527c4","618b9cbf713205f8e1c56ef3","618c67d576ecd1c57e5b61cc","og8fwtblq1qb0th","33",1,1834,1,7920.5,"0","9917",1,0,0,"1",8,12683.1999999881,"Incest","cog_load",1,"8725.800000011921",1,0,0,"3","{""Q0"":""}","""","""","""","""",7,0,0,1,0,0,1,0,0,1,"1",1,0,0,1,"7747.4000000059605",1,0,0,"1",7,"no",NA,NA,NA,"US",1,1,1,1,"wrong","wrong","It's wrong but I can't think of a reason.","wrong","wrong","wrong","wrong","wrong","wrong",FALSE,FALSE,FALSE,FALSE,FALSE,FALSE,FALSE,FALSE,0,FALSE,0,"unstated","no reason","no reason","no reason","no reason","unstated","no reason","no reason","no reason",FALSE
353,"control","1266","debriefing_form.html","external-html",27,260012,"0.0-7.0","5a6032228e625900017657f4","618b9cbf713205f8e1c56ef7","618bfa1e6d48c98eb8ae227c","blo8g157lsw1gdd","29",1,1172,1,27548,NA,"6971",NA,NA,NA,NA,8,34693,"Heinz","control",3,"5315",1,0,0,NA,"""","""","""","""","""",5,0,0,1,0,0,0,0,0,0,"2",1,0,0,3,"3888",1,0,0,NA,5,"I have encountered scenarios where people have stolen because of their dire circumstances, as well as read stories about particular situations that were life or death and required moral grey areas","The druggist could have both protected his livelihood and saved this man's wife. In fact, by demonstrating the effectiveness of his drug he could have potentially made himself more money.",NA,NA,"US",NA,1,1,1,"wrong","wrong","It's wrong and I can provide a valid reason.","wrong","wrong","wrong","wrong","wrong","wrong",FALSE,FALSE,FALSE,FALSE,FALSE,TRUE,FALSE,TRUE,1,FALSE,0,"unstated","no reason","reason","reason","reason","unstated","no reason","reason","reason",FALSE
23,"control","25780.09999847412","debriefing_form.html","external-html",27,232463,"0.0-7.0","5a6107bb31b87a0001c6c49b","618af29e6b50937ab4a5aa96","618b0d63e7275aec80b58d28","pxy5cbzbmnl1faz","31",0,2499.19999694824,1,10162,NA,"6829.200000762939",NA,NA,NA,NA,8,21803.2000007629,"Incest","control",1,"5557.299999237061",1,0,0,NA,"""","""","""","""","""",7,0,0,0,0,0,0,1,0,0,"2",1,0,0,1,"4294.899997711182",1,0,0,NA,7,"no","They are brother and sister, this is morally wrong and would have a very negative impact on numerous relationships",NA,NA,"US",NA,1,1,1,"wrong","wrong","It's wrong and I can provide a valid reason.","wrong","wrong","wrong","wrong","wrong","wrong",FALSE,FALSE,FALSE,FALSE,FALSE,FALSE,FALSE,FALSE,0,FALSE,0,"unstated","reason","reason","reason","reason","unstated","reason","reason","reason",TRUE
295,"control","2189.7999999523163","debriefing_form.html","external-html",27,186494,"0.0-7.0","5a6df612e70ca900017ae25e","618b9cbf713205f8e1c56f1c","618bf3a1bd6664f601882788","gmfydnnf01ynbl0","42",0,1499.29999995232,1,8444.59999990463,NA,"7903.599999904633",NA,NA,NA,NA,8,13762.4000000954,"Heinz","control",2,"14499.299999952316",1,0,0,NA,"""","""","""","""","""",6,0,1,0,1,0,0,1,0,0,"2",1,0,0,3,"6871.5",1,0,0,NA,6,"no","The druggist does not have to overcharge for the medication.  He can still make money and charge a decent price.",NA,NA,"US",NA,1,1,1,"wrong","wrong","It's wrong and I can provide a valid reason.","wrong","not wrong","wrong","wrong","wrong","wrong",TRUE,TRUE,FALSE,FALSE,FALSE,FALSE,FALSE,FALSE,0,TRUE,2,"unstated","reason","reason","reason","reason","unstated","reason","reason","reason",TRUE
648,"control","97419","debriefing_form.html","external-html",27,858791,"0.0-7.0","5a70abe2efd3a70001210578","618b9cbf713205f8e1c56f02","618c1d1501b8331314960f21","yhl2ylopzx82hbu","74",0,2312.5,1,21464.3000000119,NA,"7884.099999964237",NA,NA,NA,NA,8,60072.3000000119,"Trolley","control",1,"6790.800000011921",1,0,0,NA,"""","""","""","""","""",7,0,0,0,1,0,0,0,0,0,"2",1,0,0,1,"26211.899999976158",1,0,0,NA,7,"No","One life cannot be sacrificed to save another by the actions of a stranger. Paul committed murder, plain & simple.",NA,NA,"US",NA,1,1,1,"wrong","wrong","It's wrong and I can provide a valid reason.","wrong","wrong","wrong","wrong","wrong","wrong",FALSE,FALSE,FALSE,FALSE,FALSE,FALSE,FALSE,FALSE,0,FALSE,0,"unstated","reason","reason","reason","reason","unstated","reason","reason","reason",TRUE
216,"cog_load","3592.400000002235","""","survey-text",52,215838,"0.0-6.0","5a772885000dab00018c15ce","618b9cbf713205f8e1c56eec","618be8a5233e21cbdad2c6d1","d4ajrd7ldu2vf58","29",0,2294.39999999851,1,7688.80000000075,"2","12143",1,0,0,"3",8,9668.19999999926,"Incest","cog_load",1,"18031.5",1,0,0,"2","{""Q0"":""no""}","""","""","""","""",5,0,0,1,0,0,1,0,0,1,"1",1,0,0,2,"10466.199999999255",1,0,0,"2",3,"no",NA,NA,NA,"US",1,1,1,1,"wrong","wrong","It's wrong but I can't think of a reason.","wrong","wrong","wrong","wrong","wrong","wrong",FALSE,FALSE,FALSE,FALSE,FALSE,FALSE,FALSE,FALSE,0,FALSE,0,"unstated","no reason","no reason","no reason","no reason","unstated","no reason","no reason","no reason",FALSE
905,"cog_load","3824","""","survey-text",53,243347,"0.0-6.0","5a80e46a2a842c0001fc913f","618b9cbf713205f8e1c56f02","618c4b9bbff9aeb173b128c3","3orpg0ak4r9hkeu","64",0,1243,1,18333,"2","6555",1,0,0,"1",8,8047,"Incest","cog_load",1,"10805",1,0,0,"1","{""Q0"":""No""}","""","""","""","""",6,0,0,0,0,0,0,0,0,0,"2",1,0,0,1,"6159",1,0,0,"1",6,"No","Because it's not morally acceptable for a brother and sister to have sex.",NA,NA,"US",1,1,1,1,"wrong","wrong","It's wrong and I can provide a valid reason.","wrong","wrong","wrong","wrong","wrong","wrong",FALSE,FALSE,FALSE,FALSE,FALSE,FALSE,FALSE,FALSE,0,FALSE,0,"unstated","reason","reason","reason","reason","unstated","reason","reason","reason",TRUE
382,NA,"6129.400000002235","""","survey-text",2,20318,"0.0-2.0-0.0","5abfdb31f69e940001d950a1","618b9cbf713205f8e1c56f0d","618bfc137e9fe3c2d29046b3","f5q008ock9qkbee","21",NA,NA,NA,NA,NA,NA,NA,NA,NA,NA,NA,NA,NA,NA,NA,NA,NA,NA,NA,NA,"{""age_q"":""21""}",NA,NA,NA,NA,NA,NA,NA,NA,NA,NA,NA,NA,NA,NA,NA,NA,NA,NA,NA,NA,NA,NA,NA,NA,NA,NA,NA,NA,NA,"US",NA,NA,NA,NA,NA,NA,NA,NA,NA,NA,NA,NA,NA,NA,NA,NA,NA,NA,NA,NA,NA,NA,NA,NA,"unstated",NA,NA,NA,NA,"unstated",NA,NA,NA,NA
860,"cog_load","24293.69999999553","""","survey-text",60,378151,"0.0-6.0","5ac50d5ea3ba7a0001b4a4be","618b9cbf713205f8e1c56efc","618c41006d664f653d39cc75","pygderphtuefkc2","75",1,3124.20000000298,1,14304.299999997,"2","4148.29999999702",1,0,0,"0",8,26596,"Jennifer","cog_load",1,"4923.69999999553",0,2,0,"2","{""Q0"":""That is quite a disturbing scenario.""}","""","""","""","""",6,0,1,0,0,1,0,0,1,0,"2",1,0,0,2,"3972.7999999970198",1,0,0,"1",6,"Never","Cannibalisms is abhorrent to most western nations.",NA,NA,"US",1,2,1,1,"wrong","wrong","It's wrong and I can provide a valid reason.","wrong","not wrong","not wrong","not wrong","wrong","wrong",TRUE,FALSE,FALSE,TRUE,FALSE,FALSE,FALSE,FALSE,0,TRUE,2,"unstated","reason","reason","reason","reason","unstated","reason","reason","reason",TRUE
861,"control","214482","""","survey-text",25,530832,"0.0-6.0","5add6b6aeb60400001536f2c","618b9cbf713205f8e1c56efe","618c41510b6349a23f3a5b84","q478h9olh5hzv96","68",0,20054.4,1,26320.6,NA,"10097.800000000047",NA,NA,NA,NA,8,16874,"Heinz","control",4,"28712.099999999977",1,0,0,NA,"{""Q0"":""Which moral issue referring to- asking wrong to charge 10X or to have Heinz arrested?""}","""","""","""","""",2,0,1,1,1,0,1,1,0,0,"1",1,0,0,3,"5704.800000000047",1,0,0,NA,3,"no",NA,NA,NA,"US",NA,1,1,1,"neutral","wrong","It's wrong but I can't think of a reason.","not wrong","not wrong","wrong","wrong","wrong","wrong",FALSE,TRUE,FALSE,FALSE,FALSE,FALSE,TRUE,TRUE,1,TRUE,1,"unstated","no reason","no reason","reason","no reason","unstated","no reason","no reason","reason",FALSE
287,"control","5423","""","survey-text",25,924560,"0.0-6.0","5ae521a03ab2fb0001ef2365","618b9cbf713205f8e1c56eef","618bf277f041f8fc877bfcbe","ujkouoll1velbs0","37",1,2108,1,13933,NA,"11066",NA,NA,NA,NA,8,25588,"Heinz","control",5,"764939",1,0,0,NA,"{""Q0"":""no""}","""","""","""","""",4,0,1,1,1,0,2,1,0,2,"0",1,0,0,5,"5187",1,0,0,NA,3,"no",NA,NA,NA,"US",NA,1,1,1,"right","right","There is nothing wrong.","not wrong","not wrong","wrong","wrong","not wrong","not wrong",FALSE,TRUE,FALSE,TRUE,FALSE,TRUE,FALSE,TRUE,1,TRUE,2,"unstated","no reason","2","2","unstated","unstated","no reason","2","2",FALSE
609,"control","1584","debriefing_form.html","external-html",27,285135,"0.0-7.0","5aea9bcf5822e100014abc54","618b9cbf713205f8e1c56eed","618c179e38fddb2f9bb4b0db","kjm4rvc89z5fd9u","21",1,4780,1,16274,NA,"5245",NA,NA,NA,NA,8,14224,"Trolley","control",1,"5915",1,0,0,NA,"""","""","""","""","""",7,0,1,0,0,0,0,0,0,0,"2",1,0,0,1,"6889",1,0,0,NA,7,"yes everywhere","he literally just murdered a random innocent dude",NA,NA,"US",NA,1,1,1,"wrong","wrong","It's wrong and I can provide a valid reason.","wrong","not wrong","wrong","wrong","wrong","wrong",TRUE,TRUE,FALSE,FALSE,FALSE,FALSE,FALSE,FALSE,0,TRUE,2,"unstated","reason","reason","reason","reason","unstated","reason","reason","reason",TRUE
31,"cog_load","2861.8999999910593","""","survey-text",59,373917,"0.0-6.0","5aead5afb595b20001421ec3","618b9cbf713205f8e1c56f1a","618ba562f85615693cdd8be6","6prdtcaz9y6gh60","22",1,1973.40000000596,1,20102.6999999881,"0","9408.09999999404",1,0,0,"1",8,27719.3999999911,"Heinz","cog_load",3,"18628.29999999702",1,0,0,"2","{""Q0"":""no""}","""","""","""","""",6,0,0,2,1,0,0,1,0,0,"1",0,2,0,3,"7417.4000000059605",1,0,0,"1",3,"no",NA,NA,NA,"US",1,1,2,1,"wrong","wrong","It's wrong but I can't think of a reason.","wrong","wrong","wrong","wrong","wrong","wrong",FALSE,FALSE,FALSE,FALSE,FALSE,TRUE,FALSE,TRUE,1,FALSE,0,"unstated","2","reason","reason","no reason","unstated","2","reason","reason",FALSE
731,"cog_load","1727","debriefing_form.html","external-html",61,279678,"0.0-7.0","5aeb0423d629ee0001b5896b","618b9cbf713205f8e1c56f05","618c27be5b254eea12362849","vbxj0hz6kyg3uy8","48",1,1469,1,7625,"0","11777.00000000003",1,0,0,"1",8,15831,"Jennifer","cog_load",1,"5951",0,2,0,"2","""","""","""","""","""",7,0,0,0,0,0,0,0,0,0,"2",1,0,0,1,"9716.00000000003",1,0,0,"1",6,"no","2",NA,NA,"US",1,2,1,1,"wrong","wrong","It's wrong and I can provide a valid reason.","wrong","wrong","wrong","wrong","wrong","wrong",FALSE,FALSE,FALSE,FALSE,FALSE,FALSE,FALSE,FALSE,0,FALSE,0,"unstated","reason","reason","reason","reason","unstated","reason","reason","reason",TRUE
777,"control","28825.5","debriefing_form.html","external-html",27,348596,"0.0-7.0","5af09ff00eca060001b1379c","618b9cbf713205f8e1c56ef5","618c306e286068c38b789da4","hx7folffmv591y5","50",0,3154.69999992847,1,15983.8000000715,NA,"10897.799999952316",NA,NA,NA,NA,8,34187.5,"Jennifer","control",1,"8038.899999976158",1,0,0,NA,"""","""","""","""","""",7,1,0,0,0,0,0,1,0,0,"2",1,0,0,1,"5385.700000047684",1,0,0,NA,7,"no","The body was donated for scientific research, not to be eaten as food. If she thinks it is wrong to eat animals she should think it's wrong to eat humans.",NA,NA,"US",NA,1,1,1,"wrong","wrong","It's wrong and I can provide a valid reason.","wrong","wrong","wrong","wrong","wrong","wrong",FALSE,FALSE,FALSE,FALSE,FALSE,FALSE,FALSE,FALSE,0,FALSE,0,"unstated","reason","reason","reason","reason","unstated","reason","reason","reason",TRUE
492,"cog_load","4853.80000000447","""","survey-text",52,244759,"0.0-6.0","5b0d1b8e444cef0001ca66ac","618b9cbf713205f8e1c56ef4","618c0a4915e4a1194527e498","967prpwo3prq71h","57",0,1611.40000000596,1,8038.80000000447,"1","4690.10000000149",1,0,0,"1",8,25352.5,"Jennifer","cog_load",1,"6277.60000000149",1,0,0,"2","{""Q0"":""No""}","""","""","""","""",6,0,0,1,0,0,1,0,0,1,"1",1,0,0,1,"8793.60000000149",1,0,0,"1",6,"No",NA,NA,NA,"US",1,1,1,1,"wrong","wrong","It's wrong but I can't think of a reason.","wrong","wrong","wrong","wrong","wrong","wrong",FALSE,FALSE,FALSE,FALSE,FALSE,FALSE,FALSE,FALSE,0,FALSE,0,"unstated","no reason","no reason","no reason","no reason","unstated","no reason","no reason","no reason",FALSE
1050,"cog_load","3594","debriefing_form.html","external-html",54,320272,"0.0-7.0","5b1505b69663ee0001463400","618d7b0e0006685d8f891882","618dc7a0da10122d9766aafc","6uzgaadh9vey9h2","35",0,1702,1,5992,"1","9213",1,0,0,"1",8,18070,"Incest","cog_load",1,"14103",1,0,0,"2","""","""","""","""","""",1,0,0,0,0,0,0,1,0,0,"2",1,0,0,1,"19012",1,0,0,"2",7,"No.","Incest is a violation of not only the sanctity of marriage but also what should be natural relationships between humans.",NA,NA,"US",1,1,1,1,"wrong","wrong","It's wrong and I can provide a valid reason.","wrong","wrong","wrong","wrong","wrong","wrong",FALSE,FALSE,FALSE,FALSE,FALSE,FALSE,FALSE,FALSE,0,FALSE,0,"unstated","reason","reason","reason","reason","unstated","reason","reason","reason",TRUE
296,"cog_load","24681.700000047684","debriefing_form.html","external-html",54,289556,"0.0-7.0","5b16ceb0bdf4e10001630f58","618b9cbf713205f8e1c56f1c","618bf3c4177120efcccce7c6","t70r9rhvyc2cs2f","39",0,1354.10000002384,4,9428.30000007153,"0","5837.100000023842",1,0,0,"1",8,7224.39999997616,"Incest","cog_load",3,"18144.800000071526",1,0,0,"2","""","""","""","""","""",4,0,0,2,0,0,0,1,0,0,"2",1,0,0,4,"12424.5",1,0,0,"0",4,"No","It will likely affect their relationship in the future, and could very well effect them both in negative and unknown ways. It is not morally wrong, but is biologically wrong.",NA,NA,"US",1,1,1,1,"wrong","neutral","It's wrong and I can provide a valid reason.","wrong","wrong","wrong","wrong","wrong","not wrong",FALSE,FALSE,FALSE,FALSE,TRUE,TRUE,FALSE,TRUE,1,TRUE,1,"unstated","2","reason","reason","reason","unstated","2","reason","reason",FALSE
339,"control","48417","debriefing_form.html","external-html",26,508185,"0.0-7.0","5b180cd1db971600013d34cc","618b9cbf713205f8e1c56ef6","618bf88cd2057c9c82ba4254","gd7j4dm2sq03p0a","36",0,2211,1,10155,NA,"70474",NA,NA,NA,NA,8,77641,"Incest","control",1,"4741",1,0,0,NA,"""","""","""","""","""",6,0,0,0,0,0,0,0,0,0,"1",1,0,0,1,"4169",1,0,0,NA,5,"No",NA,NA,NA,"US",NA,1,1,1,"wrong","wrong","It's wrong but I can't think of a reason.","wrong","wrong","wrong","wrong","wrong","wrong",FALSE,FALSE,FALSE,FALSE,FALSE,FALSE,FALSE,FALSE,0,FALSE,0,"unstated","reason","reason","reason","no reason","unstated","reason","reason","reason",TRUE
965,"control","100552.10000002384","debriefing_form.html","external-html",27,510918,"0.0-7.0","5b2669ae0ec82d0001d20b40","618b9cbf713205f8e1c56efe","618c901a1c1ffea7838b12ee","beaqpgmulb47foh","74",0,2264.5,1,21415.6999999881,NA,"12307.699999988079",NA,NA,NA,NA,8,38053.1999999881,"Heinz","control",5,"10788.300000011921",1,0,0,NA,"""","""","""","""","""",3,0,1,2,1,0,0,0,0,1,"2",1,0,0,3,"35097",1,0,0,NA,3,"no","because thou shalt not steal",NA,NA,"US",NA,1,1,1,"right","wrong","It's wrong and I can provide a valid reason.","not wrong","not wrong","wrong","wrong","wrong","wrong",FALSE,TRUE,FALSE,FALSE,FALSE,TRUE,TRUE,TRUE,2,TRUE,1,"unstated","2","reason","no reason","reason","unstated","2","reason","no reason",FALSE
373,"cog_load","5850.799999952316","""","survey-text",67,782044,"0.0-6.0","5b314cf6532e3d00018e3099","618b9cbf713205f8e1c56ef5","618bfb5579e8c339db1ef320","dm9z0x3yymc8xtf","49",0,3790.89999985695,1,33855.6999998093,"0","12064.299999952316",0,2,0,"2",8,17088.6999998093,"Trolley","cog_load",1,"12686.100000143051",0,2,0,"2","{""Q0"":""no""}","""","""","""","""",3,1,0,0,1,0,1,1,0,0,"2",1,0,0,1,"15284.599999904633",1,0,0,"1",7,"no","2",NA,NA,"US",2,2,1,1,"wrong","wrong","It's wrong and I can provide a valid reason.","wrong","wrong","wrong","wrong","wrong","wrong",FALSE,FALSE,FALSE,FALSE,FALSE,TRUE,TRUE,TRUE,2,FALSE,0,"unstated","reason","no reason","reason","reason","unstated","reason","no reason","reason",FALSE
875,"control","3293.4000000953674","debriefing_form.html","external-html",27,204983,"0.0-7.0","5b3e57b3c2e381000175e656","618b9cbf713205f8e1c56efc","618c46706690de5e1afc635f","0uz7obvdwfdgaju","66",1,1969.7000002861,1,5467.40000009537,NA,"4930.299999713898",NA,NA,NA,NA,5,20423.8000001907,"Incest","control",1,"5641.599999904633",1,0,0,NA,"""","""","""","""","""",7,0,0,0,0,0,0,0,0,0,"2",1,0,0,1,"5282.699999809265",1,0,0,NA,7,"No","It's morally wrong for a brother and sister to ahve sex with each other.",NA,NA,"US",NA,1,1,1,"wrong","wrong","It's wrong and I can provide a valid reason.","wrong","wrong","wrong","wrong","wrong","wrong",FALSE,FALSE,FALSE,FALSE,FALSE,FALSE,FALSE,FALSE,0,FALSE,0,"unstated","reason","reason","reason","reason","unstated","reason","reason","reason",TRUE
868,"control","12676.39999999851","""","survey-text",26,491153,"0.0-6.0","5b5b8fe46de37e00014ee201","618b9cbf713205f8e1c56f02","618c42efa44e68a827b51679","g2cr6hshdqnbrgn","58",0,1936,4,29719,NA,"25731.300000000745",NA,NA,NA,NA,8,48079.5999999978,"Jennifer","control",1,"10767.800000000745",1,0,0,NA,"{""Q0"":""no""}","""","""","""","""",7,0,1,0,0,1,0,1,1,0,"2",1,0,0,1,"10270.199999999255",1,0,0,NA,7,"no","It is against God's laws to do what she did",NA,NA,"US",NA,1,1,1,"wrong","wrong","It's wrong and I can provide a valid reason.","wrong","not wrong","not wrong","not wrong","wrong","wrong",TRUE,FALSE,FALSE,TRUE,FALSE,FALSE,FALSE,FALSE,0,TRUE,2,"unstated","reason","reason","reason","reason","unstated","reason","reason","reason",TRUE
1022,"cog_load","15364","""","survey-text",52,239248,"0.0-6.0","5b669784f7798c000182c87b","618d7b0e0006685d8f891881","618dbae72b7efe3969f79708","uxq8rbfhg86hucw","23",1,1412,1,25330,"0","7055.199999988079",1,0,0,"1",8,25259.400000006,"Heinz","cog_load",7,"7289.699999988079",1,0,0,"1","{""Q0"":""This was really fun to do. I enjoyed it.""}","""","""","""","""",5,0,1,0,0,0,0,1,0,2,"1",1,0,0,6,"4767",1,0,0,"1",7,"Nope.",NA,NA,NA,"US",1,1,1,1,"right","right","It's wrong but I can't think of a reason.","not wrong","not wrong","wrong","wrong","wrong","not wrong",FALSE,TRUE,FALSE,FALSE,TRUE,FALSE,TRUE,TRUE,1,TRUE,2,"unstated","reason","reason","2","no reason","unstated","reason","reason","2",FALSE
769,"control","3067.300000000745","""","survey-text",25,101998,"0.0-6.0","5b68d45687af3100015849a9","618b9cbf713205f8e1c56f02","618c2e8fc0762eac974846ea","mv8rs3flll4cpy9","60",0,1293.69999999925,4,7198.29999999888,NA,"4813.89999999851",NA,NA,NA,NA,8,12468.5,"Trolley","control",4,"11305.800000000745",1,0,0,NA,"{""Q0"":""no""}","""","""","""","""",4,0,0,1,0,0,1,0,0,1,"1",1,0,0,3,"7780.799999998882",1,0,0,NA,5,"no",NA,NA,NA,"US",NA,1,1,1,"neutral","wrong","It's wrong but I can't think of a reason.","not wrong","wrong","wrong","wrong","wrong","wrong",TRUE,FALSE,FALSE,FALSE,FALSE,FALSE,FALSE,FALSE,0,TRUE,1,"unstated","no reason","no reason","no reason","no reason","unstated","no reason","no reason","no reason",FALSE
167,"cog_load","59916.800000071526","debriefing_form.html","external-html",68,690336,"0.0-7.0","5b6b003feb83fe0001670b47","618b9cbf713205f8e1c56f02","618be2264866b46dbc13f754","a0a7oxfyg876rgw","5b6b003feb83fe0001670b47",0,2860.19999992847,4,20028.5,"2","10798.200000047684",0,2,0,"1",8,35620.8000000715,"Heinz","cog_load",1,"8538.100000023842",0,2,0,"2","""","""","""","""","""",7,0,0,0,0,0,0,0,0,0,"2",1,0,0,1,"12333.200000047684",1,0,0,"0",7,"no","2",NA,NA,"US",2,2,1,1,"wrong","wrong","It's wrong and I can provide a valid reason.","wrong","wrong","wrong","wrong","wrong","wrong",FALSE,FALSE,FALSE,FALSE,FALSE,FALSE,FALSE,FALSE,0,FALSE,0,"unstated","reason","reason","reason","reason","unstated","reason","reason","reason",TRUE
473,"control","24429","debriefing_form.html","external-html",27,309805,"0.0-7.0","5b70f21f60d30c000176c0d7","618b9cbf713205f8e1c56efc","618c086df1ff97a154b3ca66","buwxdn77fugps4q","58",1,2602.79999998212,1,24634.8999999762,NA,"12512.800000011921",NA,NA,NA,NA,8,66986.400000006,"Jennifer","control",1,"6411.199999988079",1,0,0,NA,"""","""","""","""","""",7,0,1,0,0,0,0,0,0,0,"2",1,0,0,1,"5826.600000023842",1,0,0,NA,7,"No","It is morally wrong to eat human flesh.",NA,NA,"US",NA,1,1,1,"wrong","wrong","It's wrong and I can provide a valid reason.","wrong","not wrong","wrong","wrong","wrong","wrong",TRUE,TRUE,FALSE,FALSE,FALSE,FALSE,FALSE,FALSE,0,TRUE,2,"unstated","reason","reason","reason","reason","unstated","reason","reason","reason",TRUE
253,"cog_load","null","""","html-keyboard-response",30,112146,"0.0-4.0-1.0-4.0-1.0-1.0-3.0","5b72e25344696d0001d97931","618b9cbf713205f8e1c56f1c","618bed31d2963c173a360f3d","2oq7mm6bapphqp4","38",0,2894,1,7333,"1","3057.7000000001863",1,0,0,"0",8,6679.70000000019,"Heinz","cog_load",NA,"null",1,0,0,NA,"""","<div style=""font-size:60px;"">1</div>","""","null","""",NA,NA,NA,NA,NA,NA,NA,NA,NA,NA,NA,NA,NA,NA,NA,NA,NA,NA,NA,NA,NA,NA,NA,NA,NA,"US",1,1,NA,NA,"null",NA,NA,"null",NA,NA,NA,NA,NA,NA,NA,NA,NA,NA,NA,NA,NA,NA,NA,NA,"unstated",NA,NA,NA,NA,"unstated",NA,NA,NA,NA
762,"control","75756","""","survey-text",26,533023,"0.0-6.0","5b7aefd06c1ccb000178b710","618b9cbf713205f8e1c56f02","618c2d37350a7ad0bc1f3195","4gw01ss8t4ho5ld","59",0,1690,1,24050,NA,"7344",NA,NA,NA,NA,8,47838,"Trolley","control",1,"9322",1,0,0,NA,"{""Q0"":""No, I tried to explain that it is not right to another's life against his will - even if it is to save someone else. ""}","""","""","""","""",7,0,0,0,0,0,0,0,0,0,"2",1,0,0,1,"5507",1,0,0,NA,7,"No","To actively murder a man to save a trolley is morally wrong. The trolley was not the fat man's fault and he shouldn't be thrown to his death because of something he did not do. Plus, he did not choose to give up his life and it isn't right to take it from him.",NA,NA,"US",NA,1,1,1,"wrong","wrong","It's wrong and I can provide a valid reason.","wrong","wrong","wrong","wrong","wrong","wrong",FALSE,FALSE,FALSE,FALSE,FALSE,FALSE,FALSE,FALSE,0,FALSE,0,"unstated","reason","reason","reason","reason","unstated","reason","reason","reason",TRUE
496,"cog_load","16892.299999952316","""","survey-text",53,326680,"0.0-6.0","5b894987e79bf50001e1ff95","618b9cbf713205f8e1c56ef4","618c0b3e9093c8256d232ba9","1cll99sn6t3b1o3","48",0,1720.60000014305,4,10027.2000000477,"0","4537.5",1,0,0,"1",8,8923.20000004768,"Jennifer","cog_load",5,"7426.5",1,0,0,"3","{""Q0"":""Don't you want to know the reason why I think it's wrong?""}","""","""","""","""",5,0,0,1,0,0,1,0,0,0,"2",1,0,0,3,"7153.400000095367",1,0,0,"1",6,"No I have not","2",NA,NA,"US",1,1,1,1,"right","wrong","It's wrong and I can provide a valid reason.","not wrong","wrong","wrong","wrong","wrong","wrong",TRUE,FALSE,FALSE,FALSE,FALSE,FALSE,TRUE,TRUE,1,TRUE,1,"unstated","no reason","no reason","reason","reason","unstated","no reason","no reason","reason",FALSE
920,"control","3197.7000007629395","debriefing_form.html","external-html",27,523082,"0.0-7.0","5b98d9362cca9c0001de161f","618b9cbf713205f8e1c56f05","618c4f229079d32fbb4c1e01","k6nnt0czayulj3e","49",1,1729.10000038147,1,26560.3000011444,NA,"8974.5",NA,NA,NA,NA,8,26213.2000007629,"Jennifer","control",1,"13548.89999961853",1,0,0,NA,"""","""","""","""","""",7,0,0,0,0,0,0,0,0,0,"2",1,0,0,1,"5869.60000038147",1,0,0,NA,7,"No","Okay, as a matter of course, there are certain things that separate humans from other animals.  Some of those things are good, and some are bad.  One of the good things is that we don't eat each other.  I don't entirely agree with all societal norms, but I'm 100% onboard with this one.  Cannibalism is always a bad thing.  Always.   I don't care if you're out in the woods and starving and the only thing that will keep you alive is eating the slow fat guy in the group.  Don't  eat people.  It really is that simple.",NA,NA,"US",NA,1,1,1,"wrong","wrong","It's wrong and I can provide a valid reason.","wrong","wrong","wrong","wrong","wrong","wrong",FALSE,FALSE,FALSE,FALSE,FALSE,FALSE,FALSE,FALSE,0,FALSE,0,"unstated","reason","reason","reason","reason","unstated","reason","reason","reason",TRUE
325,"cog_load","1700.6000001430511","debriefing_form.html","external-html",54,280922,"0.0-7.0","5ba10ee370181f00014992fa","618b9cbf713205f8e1c56f1c","618bf68c271fbe68eadeb6ed","zzcy8xdmx7lvp0u","41",0,1204.70000004768,1,10502.4000000954,"0","5325.600000143051",1,0,0,"1",8,8606.79999995232,"Heinz","cog_load",2,"19586.300000190735",1,0,0,"2","""","""","""","""","""",5,0,0,0,0,1,0,0,1,0,"2",1,0,0,2,"6670",1,0,0,"1",7,"no","2",NA,NA,"US",1,1,1,1,"wrong","wrong","It's wrong and I can provide a valid reason.","wrong","wrong","not wrong","not wrong","wrong","wrong",FALSE,TRUE,FALSE,TRUE,FALSE,FALSE,FALSE,FALSE,0,TRUE,2,"unstated","reason","reason","reason","reason","unstated","reason","reason","reason",TRUE
943,"control","7386","""","survey-text",25,277869,"0.0-6.0","5ba345bcf07414000106135e","618b9cbf713205f8e1c56efc","618c5956285caec6314ab468","xlnpxf9sppf4ho5","61",1,2611,1,22714,NA,"10509",NA,NA,NA,NA,8,30805,"Incest","control",6,"12103",1,0,0,NA,"{""Q0"":""No""}","""","""","""","""",6,0,1,0,0,1,0,0,1,0,"0",1,0,0,6,"8676",1,0,0,NA,6,"No",NA,NA,NA,"US",NA,1,1,1,"right","right","There is nothing wrong.","not wrong","not wrong","not wrong","not wrong","not wrong","not wrong",FALSE,FALSE,FALSE,FALSE,FALSE,FALSE,FALSE,FALSE,0,FALSE,0,"unstated","reason","reason","reason","unstated","unstated","reason","reason","reason",TRUE
842,"cog_load","3951.5","debriefing_form.html","external-html",60,271357,"0.0-7.0","5bb101078f3bd70001e51bfe","618b9cbf713205f8e1c56f05","618c3e00813aa4d190fad27f","kknupulzgb2n7ly","54",1,2058.7999997139,4,8377.40000009537,"1","9829.900000095367",0,2,0,"1",8,14940.5,"Trolley","cog_load",6,"11716",1,0,0,"2","""","""","""","""","""",6,0,1,1,0,1,1,0,1,1,"0",1,0,0,6,"6109.900000095367",1,0,0,"1",6,"no",NA,NA,NA,"US",2,1,1,1,"right","right","There is nothing wrong.","not wrong","not wrong","not wrong","not wrong","not wrong","not wrong",FALSE,FALSE,FALSE,FALSE,FALSE,FALSE,FALSE,FALSE,0,FALSE,0,"unstated","no reason","no reason","no reason","unstated","unstated","no reason","no reason","no reason",FALSE
29,"control","4635.899999976158","""","survey-text",26,189611,"0.0-6.0","5bb19c96f1f9ba00013fed74","618af29e6b50937ab4a5aa96","618b0ff96669a934cb99e67b","4vpkx5lhnlwqz05","41",1,1410.29999995232,1,17581.5,NA,"7447.399999976158",NA,NA,NA,NA,8,24845.6999999881,"Trolley","control",1,"27300.69999998808",1,0,0,NA,"{""Q0"":""Murder is wrong""}","""","""","""","""",6,0,1,0,0,0,0,0,1,0,"2",1,0,0,3,"7942.600000023842",1,0,0,NA,5,"Yes the trolley problem is a classic","Murder is wrong",NA,NA,"US",NA,1,1,1,"wrong","wrong","It's wrong and I can provide a valid reason.","wrong","not wrong","wrong","not wrong","wrong","wrong",TRUE,TRUE,TRUE,TRUE,FALSE,FALSE,FALSE,FALSE,0,TRUE,4,"unstated","reason","reason","reason","reason","unstated","reason","reason","reason",TRUE
665,"control","13086","debriefing_form.html","external-html",27,382075,"0.0-7.0","5bb8ace23ea7ed00017c9147","618b9cbf713205f8e1c56f0e","618c1f991c732cf28fb7220d","0cp7xx2ap59xskj","40",1,1631,1,19759,NA,"7468.000000000029",NA,NA,NA,NA,8,27939,"Trolley","control",1,"6684",1,0,0,NA,"""","""","""","""","""",6,1,0,0,1,1,2,0,0,0,"2",1,0,0,1,"7442",1,0,0,NA,6,"Yes, a picture of it in memes in a large number of variations.","It’s wrong to kill someone. This example is so absurd that I can’t imagine that pushing a fat man on the train will absolutely stop the train and save the five other people, but even it did, it’s still wrong.",NA,NA,"US",NA,1,1,1,"wrong","wrong","It's wrong and I can provide a valid reason.","wrong","wrong","not wrong","wrong","wrong","wrong",FALSE,TRUE,TRUE,FALSE,FALSE,TRUE,TRUE,TRUE,2,TRUE,2,"unstated","reason","2","reason","reason","unstated","reason","2","reason",FALSE
729,"cog_load","4654.10000000149","""","survey-text",60,394771,"0.0-6.0","5bbf523d83f9790001ce549a","618b9cbf713205f8e1c56f02","618c276ce92441e34e25d4b1","cp6mnym5cv5ftzs","59",0,2132.29999999702,4,18015.5,"2","8862.79999999702",0,2,0,"1",8,31574.8000000045,"Heinz","cog_load",5,"11080.80000000447",1,0,0,"2","{""Q0"":""no""}","""","""","""","""",2,0,0,0,0,1,0,0,0,0,"2",1,0,0,5,"7770.9000000059605",1,0,0,"1",2,"no","2",NA,NA,"US",2,1,1,1,"right","right","It's wrong and I can provide a valid reason.","not wrong","wrong","not wrong","wrong","wrong","not wrong",TRUE,TRUE,TRUE,FALSE,TRUE,FALSE,FALSE,FALSE,0,TRUE,4,"unstated","reason","reason","reason","reason","unstated","reason","reason","reason",TRUE
244,"control","9967.60000000149","""","survey-text",25,265033,"0.0-6.0","5bcfc8e43d5e8100017f5e31","618b9cbf713205f8e1c56f02","618bec62754723c12472a543","b88z3nyg9aujyrn","63",0,1740.69999999925,1,29840.6000000015,NA,"16950",NA,NA,NA,NA,8,29731.6999999993,"Incest","control",1,"6140.199999999255",1,0,0,NA,"{""Q0"":""No""}","""","""","""","""",7,1,0,0,1,0,0,0,0,0,"1",1,0,0,1,"7151.300000000745",1,0,0,NA,7,"NO",NA,NA,NA,"US",NA,1,1,1,"wrong","wrong","It's wrong but I can't think of a reason.","wrong","wrong","wrong","wrong","wrong","wrong",FALSE,FALSE,FALSE,FALSE,FALSE,FALSE,FALSE,FALSE,0,FALSE,0,"unstated","reason","reason","reason","no reason","unstated","reason","reason","reason",TRUE
938,"cog_load","5450.200000286102","""","survey-text",80,450689,"0.0-6.0","5bd8fabf544d4f000141d94d","618b9cbf713205f8e1c56efc","618c576a4fb36201821d6da6","8d3nzued641nha9","68",1,4908.7000002861,4,17163,"0","6785.400000095367",0,2,0,"1",8,28314.7999997139,"Trolley","cog_load",5,"3001.9000000953674",0,2,0,"3","{""Q0"":""no""}","""","""","""","""",7,0,0,1,0,0,0,0,0,0,"1",0,2,0,3,"3262.0999999046326",0,0,3,"3",6,"no",NA,NA,NA,"US",2,2,2,3,"right","wrong","It's wrong but I can't think of a reason.","not wrong","wrong","wrong","wrong","wrong","wrong",TRUE,FALSE,FALSE,FALSE,FALSE,TRUE,FALSE,TRUE,1,TRUE,1,"unstated","no reason","reason","reason","no reason","unstated","no reason","reason","reason",FALSE
586,"cog_load","3397.705000010319","""","survey-text",52,193225,"0.0-6.0","5bdbc42b19b9ba000157af4b","618b9cbf713205f8e1c56f0e","618c134cc42c9ffcfa9a6fdb","6z8jmjn35n48vlk","38",1,1337.92499999981,1,7247.17500002589,"0","7830.254999920726",1,0,0,"1",8,18322.0949999522,"Incest","cog_load",5,"7171.60999996122",1,0,0,"2","{""Q0"":""no""}","""","""","""","""",6,0,0,1,0,0,1,0,0,1,"1",1,0,0,3,"9197.245000046678",1,0,0,"1",6,"no",NA,NA,NA,"US",1,1,1,1,"right","wrong","It's wrong but I can't think of a reason.","not wrong","wrong","wrong","wrong","wrong","wrong",TRUE,FALSE,FALSE,FALSE,FALSE,FALSE,FALSE,FALSE,0,TRUE,1,"unstated","no reason","no reason","no reason","no reason","unstated","no reason","no reason","no reason",FALSE
171,"control","8072.399999976158","debriefing_form.html","external-html",26,160922,"0.0-7.0","5bdcb92b91fcc00001668d6c","618b9cbf713205f8e1c56f1b","618be2c294fbfa389199523d","bnv1gwaxuwqd84f","27",0,7171.40000000596,1,11162.400000006,NA,"5758",NA,NA,NA,NA,8,22475.5,"Incest","control",4,"13346.09999999404",1,0,0,NA,"""","""","""","""","""",2,0,0,1,0,0,1,0,0,1,"1",1,0,0,4,"8563.5",1,0,0,NA,2,"Yes, in psychology class.",NA,NA,NA,"US",NA,1,1,1,"neutral","neutral","It's wrong but I can't think of a reason.","not wrong","wrong","wrong","wrong","wrong","not wrong",TRUE,FALSE,FALSE,FALSE,TRUE,FALSE,FALSE,FALSE,0,TRUE,2,"unstated","no reason","no reason","no reason","no reason","unstated","no reason","no reason","no reason",FALSE
907,"control","19462","debriefing_form.html","external-html",27,253675,"0.0-7.0","5bddd64b48428800013061a6","618b9cbf713205f8e1c56ef3","618c4aa5666198cf672c1272","bef0ev06pt7erx7","40",1,1056,1,7997,NA,"7048",NA,NA,NA,NA,8,10992,"Heinz","control",2,"13884",1,0,0,NA,"""","""","""","""","""",6,0,0,0,0,0,0,0,0,0,"2",1,0,0,2,"4274",1,0,0,NA,6,"No","It's wrong because stealing is wrong.",NA,NA,"US",NA,1,1,1,"wrong","wrong","It's wrong and I can provide a valid reason.","wrong","wrong","wrong","wrong","wrong","wrong",FALSE,FALSE,FALSE,FALSE,FALSE,FALSE,FALSE,FALSE,0,FALSE,0,"unstated","reason","reason","reason","reason","unstated","reason","reason","reason",TRUE
934,"control","3445.5","""","survey-text",25,183958,"0.0-6.0","5be8353e33f40a0001031d7a","618b9cbf713205f8e1c56efc","618c53f9f7c30925ca4b6280","l4kz7ewg77guyax","76",1,1640.30000000028,1,15754.8999999999,NA,"14033",NA,NA,NA,NA,8,22389.1000000001,"Heinz","control",7,"6552.700000000186",1,0,0,NA,"{""Q0"":""no""}","""","""","""","""",6,0,1,0,1,0,0,0,0,0,"0",1,0,0,7,"4495.0999999996275",1,0,0,NA,6,"no",NA,NA,NA,"US",NA,1,1,1,"right","right","There is nothing wrong.","not wrong","not wrong","wrong","wrong","not wrong","not wrong",FALSE,TRUE,FALSE,TRUE,FALSE,FALSE,FALSE,FALSE,0,TRUE,2,"unstated","reason","reason","reason","unstated","unstated","reason","reason","reason",TRUE
490,"cog_load","30719.700000047684","debriefing_form.html","external-html",54,454120,"0.0-7.0","5be8a35333f40a00010333c4","618b9cbf713205f8e1c56ef2","618c09c033161892f0ac0377","456l7mdr595evsf","47",0,1847.89999997616,1,14920.2000000477,"2","8274.300000071526",1,0,0,"1",8,30159.5,"Jennifer","cog_load",3,"18319.200000047684",1,0,0,"3","""","""","""","""","""",5,0,0,0,0,0,0,0,0,0,"2",1,0,0,3,"9124.200000047684",1,0,0,"1",5,"No.","The person who donated their body for science did not donate their body to be consumed. There was no mention that she was conducting an experiment. It appeared that she was just having dinner.",NA,NA,"US",1,1,1,1,"wrong","wrong","It's wrong and I can provide a valid reason.","wrong","wrong","wrong","wrong","wrong","wrong",FALSE,FALSE,FALSE,FALSE,FALSE,FALSE,FALSE,FALSE,0,FALSE,0,"unstated","reason","reason","reason","reason","unstated","reason","reason","reason",TRUE
757,"cog_load","22272.80000000028","""","survey-text",67,485466,"0.0-6.0","5be9a0ed8be5630001a7ecc0","618b9cbf713205f8e1c56f02","618c2ca6f0bac8556a8e4a68","44fhll7r6flczqq","59",0,2733.39999999991,1,23221.7999999998,"0","12248.799999999814",0,2,0,"1",8,25539,"Heinz","cog_load",3,"6444.899999999907",0,2,0,"3","{""Q0"":""Only that it was a rather confusing study""}","""","""","""","""",3,0,1,0,0,0,0,0,0,0,"2",1,0,0,5,"10251.30000000028",1,0,0,"1",5,"Only in this study. Otherwise, no.","Because stealing is wrong. The man could try other options to get the money",NA,NA,"US",2,2,1,1,"wrong","right","It's wrong and I can provide a valid reason.","wrong","not wrong","wrong","wrong","wrong","not wrong",TRUE,TRUE,FALSE,FALSE,TRUE,FALSE,FALSE,FALSE,0,TRUE,3,"unstated","reason","reason","reason","reason","unstated","reason","reason","reason",TRUE
332,"cog_load","38696.580000047106","""","survey-text",59,415699,"0.0-6.0","5be9fd84271bf10001525264","618b9cbf713205f8e1c56f1c","618bf75df24a3f9b7b0d5547","gznx869w4rl4r74","44",0,2643.70999997482,1,16906.1549999751,"2","10623.3099999954",1,0,0,"0",8,26341.6100000031,"Trolley","cog_load",5,"7601.184999977704",0,2,0,"2","{""Q0"":""this was not an easy multi task. i found myself really having to try to do this.""}","""","""","""","""",6,0,1,1,0,1,1,0,1,1,"0",1,0,0,6,"11057.239999994636",1,0,0,"1",6,"no",NA,NA,NA,"US",1,2,1,1,"right","right","There is nothing wrong.","not wrong","not wrong","not wrong","not wrong","not wrong","not wrong",FALSE,FALSE,FALSE,FALSE,FALSE,FALSE,FALSE,FALSE,0,FALSE,0,"unstated","no reason","no reason","no reason","unstated","unstated","no reason","no reason","no reason",FALSE
649,"control","8387.400000095367","""","survey-text",26,234646,"0.0-6.0","5c008a00bab6730001649924","618b9cbf713205f8e1c56f05","618c1d31122c8a609fa58380","um5m6k0nle6ymmz","49",1,1472.39999997616,1,9410.20000004768,NA,"10675.899999976158",NA,NA,NA,NA,8,11906.7000000477,"Incest","control",2,"5917.800000071526",1,0,0,NA,"{""Q0"":""i do not, thank you""}","""","""","""","""",7,0,0,0,0,0,0,0,0,0,"2",1,0,0,2,"3590.399999976158",1,0,0,NA,7,"No","Whether it's right or wrong, is two-fold I guess. The reproductive part of it is one, and that was covered by the double usage of birth control.  Outside of that, to me the main concern/issue I have is I don't see family members that way.  That's my personal judgement or morality.  I dont have a scientific reason just my thought process.",NA,NA,"US",NA,1,1,1,"wrong","wrong","It's wrong and I can provide a valid reason.","wrong","wrong","wrong","wrong","wrong","wrong",FALSE,FALSE,FALSE,FALSE,FALSE,FALSE,FALSE,FALSE,0,FALSE,0,"unstated","reason","reason","reason","reason","unstated","reason","reason","reason",TRUE
365,"cog_load","3682","debriefing_form.html","external-html",60,403619,"0.0-7.0","5c037f464c14cf00019d379f","618b9cbf713205f8e1c56ef6","618bfaf44a15954e96fa3ed9","ox2oocb24jbtez7","31",4,2559.20000001788,4,9712.60000002384,"1","7200.4000000059605",1,0,0,"0",8,12510.8999999762,"Trolley","cog_load",5,"19382",1,0,0,"2","""","""","""","""","""",3,0,0,2,0,0,1,0,0,1,"1",0,2,0,3,"18541.899999976158",1,0,0,"0",3,"no",NA,NA,NA,"US",1,1,2,1,"right","wrong","It's wrong but I can't think of a reason.","not wrong","wrong","wrong","wrong","wrong","wrong",TRUE,FALSE,FALSE,FALSE,FALSE,TRUE,FALSE,TRUE,1,TRUE,1,"unstated","2","no reason","no reason","no reason","unstated","2","no reason","no reason",FALSE
588,"control","6599","debriefing_form.html","external-html",27,326838,"0.0-7.0","5c07046396378a000119561f","618b9cbf713205f8e1c56f05","618c13fee8abc53f8db87567","85388bp99wde50q","53",1,1741,1,9494,NA,"6438",NA,NA,NA,NA,8,14388,"Incest","control",1,"4656",1,0,0,NA,"""","""","""","""","""",7,0,0,0,0,0,0,1,0,0,"2",1,0,0,1,"5449",1,0,0,NA,7,"No","Their action was not only illegal but morally wrong as it broke the taboo of incest and threatened future emotonal damage for them and their families.",NA,NA,"US",NA,1,1,1,"wrong","wrong","It's wrong and I can provide a valid reason.","wrong","wrong","wrong","wrong","wrong","wrong",FALSE,FALSE,FALSE,FALSE,FALSE,FALSE,FALSE,FALSE,0,FALSE,0,"unstated","reason","reason","reason","reason","unstated","reason","reason","reason",TRUE
179,"cog_load","null","""","html-button-response",62,317137,"0.0-4.0-1.0-10.0-1.0-2.0","5c0c23a7217d60000112173a","618b9cbf713205f8e1c56f1b","618be2345694a803455a8a37","j6szd9z5hk867lg","22",0,8290,1,9087,"0","null",0,2,0,"4",8,4301,"Incest","cog_load",2,"5211",0,2,0,"4","""","<video autoplay muted><source src='video/num_scroll_test10.mp4' type='video/mp4'></video><br><p style='font-size:20px;'>Julie and Mark's behaviour did not harm anyone or negatively affect anyone.</p><p style='font-size:20px;'>How can there be anything wrong with what they did?</p>","null","""","""",6,0,0,0,0,0,0,1,0,0,"null",0,2,0,NA,NA,NA,NA,NA,NA,NA,NA,NA,NA,NA,"US",2,2,2,NA,"wrong",NA,NA,"wrong","wrong","wrong","wrong","null",NA,FALSE,FALSE,FALSE,TRUE,NA,FALSE,FALSE,FALSE,0,NA,NA,"unstated","reason","reason","reason","null","unstated","reason","reason","reason",TRUE
88,"cog_load","22321.09999999404","debriefing_form.html","external-html",54,434000,"0.0-7.0","5c0f02930058fa0001c6c79f","618b9cbf713205f8e1c56f1b","618bd34be3d221979aad54ce","9s5mlr6h9lz0zh8","26",0,1761.80000001192,1,17040.900000006,"1","15138.39999999106",1,0,0,"1",8,21664.5,"Incest","cog_load",1,"11663.79999999702",1,0,0,"3","""","""","""","""","""",7,0,0,0,0,0,0,0,0,0,"2",1,0,0,2,"8345.40000000596",1,0,0,"1",6,"no","they are siblings",NA,NA,"US",1,1,1,1,"wrong","wrong","It's wrong and I can provide a valid reason.","wrong","wrong","wrong","wrong","wrong","wrong",FALSE,FALSE,FALSE,FALSE,FALSE,FALSE,FALSE,FALSE,0,FALSE,0,"unstated","reason","reason","reason","reason","unstated","reason","reason","reason",TRUE
146,"control","2405.199999809265","""","survey-text",26,209112,"0.0-6.0","5c103965ce422b0001d63b86","618b9cbf713205f8e1c56ef6","618bdf0a7d18ab49c73de703","zkz277yt626q0c7","31",0,2635.90000009537,1,16801.3000001907,NA,"8179.400000095367",NA,NA,NA,NA,8,29223.2000002861,"Heinz","control",3,"5340.099999904633",1,0,0,NA,"{""Q0"":""no""}","""","""","""","""",5,0,1,0,0,0,2,0,0,2,"2",1,0,0,3,"5666.5",1,0,0,NA,5,"no","He wasn't necessarily protecting his livlihood, but he was exploiting something for profit, even though access to it could save a life.",NA,NA,"US",NA,1,1,1,"wrong","wrong","It's wrong and I can provide a valid reason.","wrong","not wrong","wrong","wrong","wrong","wrong",TRUE,TRUE,FALSE,FALSE,FALSE,TRUE,FALSE,TRUE,1,TRUE,2,"unstated","reason","2","2","reason","unstated","reason","2","2",FALSE
238,"control","2873","debriefing_form.html","external-html",26,167510,"0.0-7.0","5c14a5a31f6f150001496466","618b9cbf713205f8e1c56eeb","618beb6c69a7d0e2d1e71d8d","eky4z6ln8urmxkh","28",1,1049,4,6548,NA,"6959",NA,NA,NA,NA,8,15721,"Jennifer","control",1,"11088",1,0,0,NA,"""","""","""","""","""",1,0,0,2,0,0,2,1,0,2,"1",1,0,0,1,"2508",1,0,0,NA,6,"No",NA,NA,NA,"US",NA,1,1,1,"wrong","wrong","It's wrong but I can't think of a reason.","wrong","wrong","wrong","wrong","wrong","wrong",FALSE,FALSE,FALSE,FALSE,FALSE,FALSE,FALSE,FALSE,0,FALSE,0,"unstated","2","2","2","no reason","unstated","2","2","2",FALSE
821,"cog_load","3633.9000000059605","debriefing_form.html","external-html",61,379597,"0.0-7.0","5c1a4d7d1aea120001fdd685","618b9cbf713205f8e1c56f02","618c3a77bce96b1c8b83af54","d6y9xcl3m59rdhp","59",0,1568.09999999404,4,9380.09999999404,"2","8152.5999999940395",1,0,0,"1",8,19668.900000006,"Trolley","cog_load",3,"9901.200000017881",0,2,0,"3","""","""","""","""","""",5,0,0,0,0,0,0,0,1,0,"2",1,0,0,3,"9231.799999982119",1,0,0,"2",7,"I have seen similar scenarios in other studies.","He chose to kill a person.  The person could have made that choice but we don't know that he did.  Paul killed a person",NA,NA,"US",1,2,1,1,"wrong","wrong","It's wrong and I can provide a valid reason.","wrong","wrong","wrong","not wrong","wrong","wrong",FALSE,FALSE,TRUE,TRUE,FALSE,FALSE,FALSE,FALSE,0,TRUE,2,"unstated","reason","reason","reason","reason","unstated","reason","reason","reason",TRUE
52,"control","2123.2999999523163","""","survey-text",25,113941,"0.0-6.0","5c1a85dcc8a84e0001a84370","618b9cbf713205f8e1c56f0e","618bc99c5c7576b0b6d9eb71","y0wyym0dvlygw27","47",1,1441.89999997616,1,8122.19999992847,NA,"6822.100000023842",NA,NA,NA,NA,8,22146.7000000477,"Trolley","control",6,"5694.300000071526",1,0,0,NA,"{""Q0"":""}","""","""","""","""",5,0,1,0,0,1,0,0,1,0,"0",1,0,0,6,"5521.400000095367",1,0,0,NA,5,"No, I have not.",NA,NA,NA,"US",NA,1,1,1,"right","right","There is nothing wrong.","not wrong","not wrong","not wrong","not wrong","not wrong","not wrong",FALSE,FALSE,FALSE,FALSE,FALSE,FALSE,FALSE,FALSE,0,FALSE,0,"unstated","reason","reason","reason","unstated","unstated","reason","reason","reason",TRUE
371,"control","3353.899999999907","""","survey-text",26,331110,"0.0-6.0","5c1ebf5f658e9200017ae7e9","618b9cbf713205f8e1c56f1c","618bfb3892f0913ec699c4c9","rf3l0ymjnpt1bu0","44",0,2025.80000000005,4,10807.3,NA,"21064.600000000093",NA,NA,NA,NA,8,10159.5,"Trolley","control",2,"3574.6999999999534",1,0,0,NA,"{""Q0"":""}","""","""","""","""",3,0,1,0,0,0,0,0,1,1,"2",1,0,0,4,"8275.700000000186",1,0,0,NA,5,"Yes, in others surveys","Every life is important, the numbers don't count. The fat gentleman is as important as the five people, so I would let the course of fate do what it was doing",NA,NA,"US",NA,1,1,1,"wrong","neutral","It's wrong and I can provide a valid reason.","wrong","not wrong","wrong","not wrong","wrong","not wrong",TRUE,TRUE,TRUE,TRUE,TRUE,FALSE,TRUE,TRUE,1,TRUE,5,"unstated","reason","reason","no reason","reason","unstated","reason","reason","no reason",FALSE
848,"cog_load","36995","debriefing_form.html","external-html",54,498457,"0.0-7.0","5c237be889f035000173c96c","618b9cbf713205f8e1c56efc","618c3ef10376d117d32ecb35","d4bx6mwbonjf4kl","69",1,2138.99999999999,1,16033,"2","13333",1,0,0,"1",8,65558,"Heinz","cog_load",2,"12750",1,0,0,"2","""","""","""","""","""",5,0,0,0,0,0,1,0,1,0,"2",1,0,0,2,"10282",1,0,0,"1",6,"No","2",NA,NA,"US",1,1,1,1,"wrong","wrong","It's wrong and I can provide a valid reason.","wrong","wrong","wrong","not wrong","wrong","wrong",FALSE,FALSE,TRUE,TRUE,FALSE,TRUE,TRUE,TRUE,2,TRUE,2,"unstated","reason","no reason","reason","reason","unstated","reason","no reason","reason",FALSE
898,"control","7148.70000000298","debriefing_form.html","external-html",27,333062,"0.0-7.0","5c239f96da51990001e21d97","618b9cbf713205f8e1c56efc","618c4aeef426a225b5c16915","dafny49p0twgzwd","74",1,2492.89999999851,1,21656.299999997,NA,"18623.90000000596",NA,NA,NA,NA,8,34856.8999999985,"Jennifer","control",1,"9641.20000000298",1,0,0,NA,"""","""","""","""","""",7,0,0,0,0,0,0,0,0,0,"2",1,0,0,1,"10376.89999999851",1,0,0,NA,1,"no","it is wrong to eat human flesh",NA,NA,"US",NA,1,1,1,"wrong","wrong","It's wrong and I can provide a valid reason.","wrong","wrong","wrong","wrong","wrong","wrong",FALSE,FALSE,FALSE,FALSE,FALSE,FALSE,FALSE,FALSE,0,FALSE,0,"unstated","reason","reason","reason","reason","unstated","reason","reason","reason",TRUE
780,"control","3146","debriefing_form.html","external-html",26,140388,"0.0-7.0","5c26b151c4b6e3000152c0b8","618b9cbf713205f8e1c56efc","618c31ce45e65d6fcd5059b4","m676od9pvdwueuu","67",1,1319,1,8364,NA,"6598",NA,NA,NA,NA,8,12933,"Incest","control",4,"15625",1,0,0,NA,"""","""","""","""","""",3,0,1,1,0,1,1,0,1,1,"0",1,0,0,4,"5819",1,0,0,NA,3,"No",NA,NA,NA,"US",NA,1,1,1,"neutral","neutral","There is nothing wrong.","not wrong","not wrong","not wrong","not wrong","not wrong","not wrong",FALSE,FALSE,FALSE,FALSE,FALSE,FALSE,FALSE,FALSE,0,FALSE,0,"unstated","no reason","no reason","no reason","unstated","unstated","no reason","no reason","no reason",FALSE
1057,NA,"9891.200000047684","""","html-button-response",4,411151,"0.0-3.0","5c286ff770d93a00012126f6","618d7b0e0006685d8f891882","618dc98e1def2ae6362b9c6a","bjl1orufa292xyb","42",0,14011.2999999523,1,9891.20000004768,NA,NA,NA,NA,NA,NA,NA,NA,NA,NA,NA,NA,NA,NA,NA,NA,"""","<img src=""img/attention2.png""><br>","1",NA,NA,NA,NA,NA,NA,NA,NA,NA,NA,NA,NA,NA,NA,NA,NA,NA,NA,NA,NA,NA,NA,NA,NA,NA,NA,NA,"US",NA,NA,NA,NA,NA,NA,NA,NA,NA,NA,NA,NA,NA,NA,NA,NA,NA,NA,NA,NA,NA,NA,NA,NA,"unstated",NA,NA,NA,NA,"unstated",NA,NA,NA,NA
21,"control","7721.099999904633","debriefing_form.html","external-html",27,326847,"0.0-7.0","5c29e72b1c93a40001010724","618af29e6b50937ab4a5aa96","618b0caecfc715f00ad74d87","09778odp5fuxdrb","29",2,1062.09999990463,1,15846.5999999046,NA,"6710.800000190735",NA,NA,NA,NA,8,29879.8000001907,"Trolley","control",1,"6542.5",1,0,0,NA,"""","""","""","""","""",3,0,0,2,0,0,2,0,1,0,"2",1,0,0,2,"5486.400000095367",1,0,0,NA,5,"No","It's not up to Paul to take one innocent bystander's fate into his hands because of an unfortunate situation unfolding before them. If the train crashes, it's a tragic accident, if Paul pushes the man, it's murder. A ""good reason"" doesn't change the fact that Paul's direct action caused someone to die.",NA,NA,"US",NA,1,1,1,"wrong","wrong","It's wrong and I can provide a valid reason.","wrong","wrong","wrong","not wrong","wrong","wrong",FALSE,FALSE,TRUE,TRUE,FALSE,FALSE,TRUE,TRUE,1,TRUE,2,"unstated","2","2","reason","reason","unstated","2","2","reason",FALSE
426,"cog_load","4411","""","survey-text",59,331730,"0.0-6.0","5c2a535448ab0e000191ab0b","618b9cbf713205f8e1c56efc","618c02d122cee0d206444323","a6o3l13vxpb1z40","58",1,1967,1,14018,"1","11045",1,0,0,"1",8,25396,"Incest","cog_load",1,"4731",0,2,0,"0","{""Q0"":""no""}","""","""","""","""",7,0,0,0,0,0,2,0,0,1,"1",1,0,0,1,"11192",1,0,0,"1",6,"no",NA,NA,NA,"US",1,2,1,1,"wrong","wrong","It's wrong but I can't think of a reason.","wrong","wrong","wrong","wrong","wrong","wrong",FALSE,FALSE,FALSE,FALSE,FALSE,TRUE,TRUE,TRUE,2,FALSE,0,"unstated","reason","2","no reason","no reason","unstated","reason","2","no reason",FALSE
202,"cog_load","4146.900000095367","debriefing_form.html","external-html",53,284134,"0.0-7.0","5c2b6f4cda51990001e3ae6a","618b9cbf713205f8e1c56ef6","618be67f2102dcd0463b57cb","p5jyr0083d6ab7f","37",0,1388.19999980927,1,10266.2999997139,"2","10929.700000286102",1,0,0,"1",8,21425.5999999046,"Jennifer","cog_load",2,"8608.199999809265",1,0,0,"2","""","""","""","""","""",6,0,1,0,0,1,0,0,0,0,"1",1,0,0,2,"9480.599999904633",1,0,0,"1",6,"nope",NA,NA,NA,"US",1,1,1,1,"wrong","wrong","It's wrong but I can't think of a reason.","wrong","not wrong","not wrong","wrong","wrong","wrong",TRUE,FALSE,TRUE,FALSE,FALSE,FALSE,FALSE,FALSE,0,TRUE,2,"unstated","reason","reason","reason","no reason","unstated","reason","reason","reason",TRUE
930,"control","2919","debriefing_form.html","external-html",27,198322,"0.0-7.0","5c2d2d6cc8ebae0001a41397","618b9cbf713205f8e1c56ef1","618c52595f82a3fecfdbd6e2","43dz07bv16qnq4t","49",1,10726,1,15506,NA,"7221.999999999971",NA,NA,NA,NA,8,14645,"Jennifer","control",2,"14852",1,0,0,NA,"""","""","""","""","""",7,0,0,0,0,0,0,0,0,0,"2",1,0,0,1,"10850",1,0,0,NA,7,"No","Cannibalism is a taboo worse than murder.",NA,NA,"US",NA,1,1,1,"wrong","wrong","It's wrong and I can provide a valid reason.","wrong","wrong","wrong","wrong","wrong","wrong",FALSE,FALSE,FALSE,FALSE,FALSE,FALSE,FALSE,FALSE,0,FALSE,0,"unstated","reason","reason","reason","reason","unstated","reason","reason","reason",TRUE
831,"cog_load","3862.5","""","survey-text",52,200122,"0.0-6.0","5c2d426389f035000175d171","618b9cbf713205f8e1c56f05","618c3c846d664f653d39cc5b","ufs80hb055stcqb","53",1,1361.40000000014,1,7349.70000000019,"2","8481.40000000014",1,0,0,"1",1,4697.80000000005,"Trolley","cog_load",5,"13771.699999999953",1,0,0,"2","{""Q0"":""no""}","""","""","""","""",5,0,1,2,1,1,2,0,1,2,"1",1,0,0,6,"9337.600000000093",1,0,0,"1",6,"no",NA,NA,NA,"US",1,1,1,1,"right","right","It's wrong but I can't think of a reason.","not wrong","not wrong","not wrong","not wrong","wrong","not wrong",FALSE,FALSE,FALSE,TRUE,TRUE,FALSE,FALSE,FALSE,0,TRUE,2,"unstated","2","2","2","no reason","unstated","2","2","2",FALSE
768,"control","2538","debriefing_form.html","external-html",27,149731,"0.0-7.0","5c3230a4d209e500011d5d3b","618b9cbf713205f8e1c56f02","618c2e86f7647eed31985373","3h7kmbnuvf1qh96","59",0,1408,1,4149,NA,"10528",NA,NA,NA,NA,8,7403,"Heinz","control",1,"6430",1,0,0,NA,"""","""","""","""","""",7,0,1,0,0,0,0,0,0,0,"2",1,0,0,1,"4314",1,0,0,NA,7,"no","He may have been trying to make a living but charging 10x what it cost to make is preying on desperate people. He could have charged half that and saved a lot more people.",NA,NA,"US",NA,1,1,1,"wrong","wrong","It's wrong and I can provide a valid reason.","wrong","not wrong","wrong","wrong","wrong","wrong",TRUE,TRUE,FALSE,FALSE,FALSE,FALSE,FALSE,FALSE,0,TRUE,2,"unstated","reason","reason","reason","reason","unstated","reason","reason","reason",TRUE
851,"control","9641.400000095367","debriefing_form.html","external-html",27,376662,"0.0-7.0","5c38f43bb594c40001212d39","618b9cbf713205f8e1c56efc","618c3f696876195a241da907","1mjq7gdxqvp3mam","5c38f43bb594c40001212d39",1,3774.60000014305,1,18046,NA,"11986.799999952316",NA,NA,NA,NA,8,27712.1000001431,"Trolley","control",1,"8905.699999809265",1,0,0,NA,"""","""","""","""","""",7,1,1,0,0,0,0,1,0,0,"2",1,0,0,7,"20492.599999904633",1,0,0,NA,7,"no","It is wrong to push and kill an innocent person. There is no way for the man to know if it would stop the trolley or if the trolley would really kill  5 people.",NA,NA,"US",NA,1,1,1,"wrong","right","It's wrong and I can provide a valid reason.","wrong","not wrong","wrong","wrong","wrong","not wrong",TRUE,TRUE,FALSE,FALSE,TRUE,FALSE,FALSE,FALSE,0,TRUE,3,"unstated","reason","reason","reason","reason","unstated","reason","reason","reason",TRUE
329,"control","3639.199999999255","""","survey-text",25,233656,"0.0-6.0","5c3e82e91580e9000122d204","618b9cbf713205f8e1c56eef","618bf6b2fdfdbcce69e20cfb","f6suls8wtoelmsx","36",1,8044,1,15616.3000000007,NA,"13157.5",NA,NA,NA,NA,8,23374.6999999993,"Incest","control",2,"15930.200000001118",1,0,0,NA,"{""Q0"":""no""}","""","""","""","""",5,0,0,2,0,0,2,0,0,2,"1",1,0,0,2,"5586.0999999996275",1,0,0,NA,3,"no",NA,NA,NA,"US",NA,1,1,1,"wrong","wrong","It's wrong but I can't think of a reason.","wrong","wrong","wrong","wrong","wrong","wrong",FALSE,FALSE,FALSE,FALSE,FALSE,FALSE,FALSE,FALSE,0,FALSE,0,"unstated","2","2","2","no reason","unstated","2","2","2",FALSE
923,"cog_load","21429.399999976158","""","survey-text",66,987152,"0.0-6.0","5c4177c564c45700016a0f3e","618b9cbf713205f8e1c56efe","618c4e8fa1f926ed48edfba7","y69o0kc4jxg2rzu","60",0,1977.30000001192,1,23278.3000000119,"2","14264.099999964237",0,2,0,"1",8,43393.5,"Trolley","cog_load",3,"12801.5",0,2,0,"4","{""Q0"":""No, not at this time and thank you!""}","""","""","""","""",6,1,0,0,0,0,0,0,0,0,"1",1,0,0,5,"12832.900000035763",1,0,0,"1",6,"no",NA,NA,NA,"US",2,2,1,1,"wrong","right","It's wrong but I can't think of a reason.","wrong","wrong","wrong","wrong","wrong","not wrong",FALSE,FALSE,FALSE,FALSE,TRUE,FALSE,FALSE,FALSE,0,TRUE,1,"unstated","reason","reason","reason","no reason","unstated","reason","reason","reason",TRUE
113,"control","74736.59999999776","debriefing_form.html","external-html",27,479792,"0.0-7.0","5c43fc3c083ec5000180f46b","618b9cbf713205f8e1c56f08","618bd9acedc8c175bcc6088e","jvpc5dbn34pkb0q","31",0,1259.30000000075,1,19751.5999999996,NA,"51809.599999997765",NA,NA,NA,NA,8,44385.1999999993,"Incest","control",1,"10691.39999999851",1,0,0,NA,"""","""","""","""","""",7,0,0,0,0,0,0,0,0,0,"2",1,0,0,1,"9494.89999999851",1,0,0,NA,1,"No","There are moral standards we abide by as a society (secular and religious) and this act goes completely against it.",NA,NA,"US",NA,1,1,1,"wrong","wrong","It's wrong and I can provide a valid reason.","wrong","wrong","wrong","wrong","wrong","wrong",FALSE,FALSE,FALSE,FALSE,FALSE,FALSE,FALSE,FALSE,0,FALSE,0,"unstated","reason","reason","reason","reason","unstated","reason","reason","reason",TRUE
2,"cog_load","4523.9000000059605","""","survey-text",53,205660,"0.0-6.0","5c44a24858468f000197efc7","618af29e6b50937ab4a5aa96","618aff1d4f59e1dc40395dcb","ogrpeblf5tc933y","40",0,1572.59999999404,1,1296.09999999404,"2","8279.699999988079",1,0,0,"1",8,25051,"Incest","cog_load",1,"6760.800000011921",1,0,0,"2","{""Q0"":""No""}","""","""","""","""",7,1,0,0,0,0,0,1,0,0,"2",1,0,0,1,"7368.5",1,0,0,"1",7,"No","2",NA,NA,"US",1,1,1,1,"wrong","wrong","It's wrong and I can provide a valid reason.","wrong","wrong","wrong","wrong","wrong","wrong",FALSE,FALSE,FALSE,FALSE,FALSE,FALSE,FALSE,FALSE,0,FALSE,0,"unstated","reason","reason","reason","reason","unstated","reason","reason","reason",TRUE
442,"control","20547.00000000003","""","survey-text",25,174732,"0.0-6.0","5c44c6ea4c194d00019cea9c","618b9cbf713205f8e1c56f0c","618c057333819569f2828001","4ne20kwewj14ku5","22",1,1252,1,12733,NA,"8122.999999999985",NA,NA,NA,NA,8,21467,"Incest","control",3,"6613",1,0,0,NA,"{""Q0"":""No""}","""","""","""","""",3,0,0,2,0,1,0,0,1,0,"0",1,0,0,4,"10492",1,0,0,NA,5,"No",NA,NA,NA,"US",NA,1,1,1,"wrong","neutral","There is nothing wrong.","wrong","wrong","not wrong","not wrong","not wrong","not wrong",FALSE,TRUE,FALSE,FALSE,FALSE,TRUE,FALSE,TRUE,1,TRUE,1,"unstated","2","reason","reason","unstated","unstated","2","reason","reason",FALSE
1004,"cog_load","8104.699999999255","""","survey-text",52,149382,"0.0-5.0","5c44e9773767180001f4805d","618d7b0e0006685d8f891882","618dabff7c86df3e32d4675e","bbu298837rgybkk","25",0,1887.09999999963,1,9216.70000000019,"0","4957.700000000186",1,0,0,"0",8,4504.29999999981,"Trolley","cog_load",5,"6089",1,0,0,"1","{""Q0"":""probably in a tv show""}","""","""","""","""",5,0,0,0,0,0,0,0,0,0,"2",1,0,0,5,"3817.2000000001863",1,0,0,"0",5,"probably in a tv show","because he sacrificed someone to save 5",NA,NA,"US",1,1,1,1,"right","right","It's wrong and I can provide a valid reason.","not wrong","wrong","wrong","wrong","wrong","not wrong",TRUE,FALSE,FALSE,FALSE,TRUE,FALSE,FALSE,FALSE,0,TRUE,2,"unstated","reason","reason","reason","reason","unstated","reason","reason","reason",TRUE
606,"control","1421.7999999523163","""","survey-text",25,98193,"0.0-6.0","5c46540c4b9ebe00012eef7f","618b9cbf713205f8e1c56ef7","618c171b5dfae83a452b42fb","4pkh4qkzb9g67ff","33",1,941.799999952316,1,7902.79999995232,NA,"6830.900000095367",NA,NA,NA,NA,8,14503.5,"Trolley","control",7,"2965.600000143051",1,0,0,NA,"{""Q0"":""}","""","""","""","""",5,0,1,2,0,1,2,0,1,1,"1",1,0,0,5,"3396.2999999523163",1,0,0,NA,5,"Yes, the classic train trolley switch discussion",NA,NA,NA,"US",NA,1,1,1,"right","right","It's wrong but I can't think of a reason.","not wrong","not wrong","not wrong","not wrong","wrong","not wrong",FALSE,FALSE,FALSE,TRUE,TRUE,FALSE,TRUE,TRUE,1,TRUE,2,"unstated","2","2","no reason","no reason","unstated","2","2","no reason",FALSE
361,"control","2332.60000000149","debriefing_form.html","external-html",26,116370,"0.0-7.0","5c49484a6d9ae80001a1aa72","618b9cbf713205f8e1c56f0e","618bfab76882a687981f80c7","0nox1j7mdqruuqs","43",1,1608.5,4,9079,NA,"7104.0999999996275",NA,NA,NA,NA,8,10938.5999999996,"Incest","control",3,"4118.5",1,0,0,NA,"""","""","""","""","""",6,0,0,2,0,0,2,0,0,2,"1",1,0,0,3,"3067.9000000003725",1,0,0,NA,5,"no",NA,NA,NA,"US",NA,1,1,1,"wrong","wrong","It's wrong but I can't think of a reason.","wrong","wrong","wrong","wrong","wrong","wrong",FALSE,FALSE,FALSE,FALSE,FALSE,FALSE,FALSE,FALSE,0,FALSE,0,"unstated","2","2","2","no reason","unstated","2","2","2",FALSE
112,"control","7835.5","debriefing_form.html","external-html",27,169048,"0.0-7.0","5c4b63683a36e70001a176d4","618b9cbf713205f8e1c56eec","618bd966bf2427ffab7fb703","z0s6rs3lpz6zzrs","28",0,1125.29999999702,4,11959.6000000089,NA,"6797",NA,NA,NA,NA,8,18492,"Trolley","control",3,"8119.600000008941",1,0,0,NA,"""","""","""","""","""",7,0,0,0,0,0,0,0,0,0,"2",1,0,0,3,"4838.5",1,0,0,NA,7,"No","I understand that Paul saved five lives but he took one. Why did that man deserve to die but the others deserved to live?",NA,NA,"US",NA,1,1,1,"wrong","wrong","It's wrong and I can provide a valid reason.","wrong","wrong","wrong","wrong","wrong","wrong",FALSE,FALSE,FALSE,FALSE,FALSE,FALSE,FALSE,FALSE,0,FALSE,0,"unstated","reason","reason","reason","reason","unstated","reason","reason","reason",TRUE
422,"cog_load","5134","""","html-button-response",18,68026,"0.0-4.0-1.0-1.0","5c4cc34e8f878f0001d125b0","618b9cbf713205f8e1c56f0e","618c0289429a1133611f9ead","45jhyso0gm307p3","42",1,1767.20000004768,1,10833.9000000954,"2","5688.900000095367",1,0,0,"1",8,13005.2999999523,"Trolley","cog_load",NA,NA,NA,NA,NA,NA,"""","<p style='max-width: 800px; text-align: left; font-size: 18px'>A Trolley is hurtling down a track towards five people. It will kill them all on impact. Paul is on a bridge under which it will pass. He can stop it by putting something very heavy in front of it. As it happens, there is a very fat man next to him. Paul's only way to stop the trolley is to push him over the bridge and onto the track, killing him to save five. Paul decides to push the man.</p>","0","""",NA,NA,NA,NA,NA,NA,NA,NA,NA,NA,NA,NA,NA,NA,NA,NA,NA,NA,NA,NA,NA,NA,NA,NA,NA,NA,"US",1,NA,NA,NA,NA,NA,NA,NA,NA,NA,NA,NA,NA,NA,NA,NA,NA,NA,NA,NA,NA,NA,NA,NA,"unstated",NA,NA,NA,NA,"unstated",NA,NA,NA,NA
808,"control","28645.799999952316","debriefing_form.html","external-html",26,513535,"0.0-7.0","5c4d5328889752000156a11d","618b9cbf713205f8e1c56f05","618c37d7c7646149332f79b7","ho604e1e0c5lsjf","49",1,1876.89999997616,1,10850.6999999285,NA,"7534.099999904633",NA,NA,NA,NA,8,9486.89999997616,"Incest","control",4,"18132.5",1,0,0,NA,"""","""","""","""","""",5,0,1,0,0,1,0,0,1,0,"0",1,0,0,4,"9931.800000071526",1,0,0,NA,5,"not sure when but in some previous study or studies and in discussions of philosophy and moral psychology",NA,NA,NA,"US",NA,1,1,1,"neutral","neutral","There is nothing wrong.","not wrong","not wrong","not wrong","not wrong","not wrong","not wrong",FALSE,FALSE,FALSE,FALSE,FALSE,FALSE,FALSE,FALSE,0,FALSE,0,"unstated","reason","reason","reason","unstated","unstated","reason","reason","reason",TRUE
573,"control","4886","""","survey-text",26,340401,"0.0-6.0","5c4e08bf0467570001252b13","618b9cbf713205f8e1c56efc","618c120268d4f22ef359eea9","7tg4oeq6b9hckzw","59",1,1909.69999999925,1,19614.8000000007,NA,"14052.800000000745",NA,NA,NA,NA,8,34964.8999999985,"Jennifer","control",1,"9382.20000000298",1,0,0,NA,"{""Q0"":""No""}","""","""","""","""",7,0,1,2,0,1,1,0,0,2,"2",1,0,0,1,"6468.89999999851",1,0,0,NA,7,"No","In human society desecration and cannibalism are deemed morally wrong.",NA,NA,"US",NA,1,1,1,"wrong","wrong","It's wrong and I can provide a valid reason.","wrong","not wrong","not wrong","wrong","wrong","wrong",TRUE,FALSE,TRUE,FALSE,FALSE,TRUE,TRUE,TRUE,2,TRUE,2,"unstated","2","no reason","2","reason","unstated","2","no reason","2",FALSE
303,"cog_load","60087","""","survey-text",66,652888,"0.0-6.0","5c4eba38889752000156e096","618b9cbf713205f8e1c56f0e","618bf4702a4b50196d04d613","zk15gbfzr6zel72","41",1,2295,1,20231,"1","8492",0,2,0,"1",8,36921,"Jennifer","cog_load",3,"3815",0,2,0,"2","{""Q0"":""the girl was hungry and the body would soon be gone""}","""","""","""","""",7,0,1,0,0,1,0,1,1,0,"0",1,0,0,1,"10770",1,0,0,"1",7,"no",NA,NA,NA,"US",2,2,1,1,"wrong","wrong","There is nothing wrong.","wrong","not wrong","not wrong","not wrong","not wrong","wrong",TRUE,FALSE,FALSE,FALSE,TRUE,FALSE,FALSE,FALSE,0,TRUE,2,"unstated","reason","reason","reason","unstated","unstated","reason","reason","reason",TRUE
298,"cog_load","11052.199999988079","""","survey-text",60,286231,"0.0-6.0","5c4f2807ae1e8a000180a7ac","618b9cbf713205f8e1c56f02","618bf40bb551752f909b8324","v3qxa1w7klq99jk","59",0,1910.80000001192,1,15166.2999999821,"1","8034",1,0,0,"3",8,15871,"Jennifer","cog_load",1,"8527.800000011921",0,2,0,"3","{""Q0"":""Nobe""}","""","""","""","""",3,0,0,0,0,0,0,0,0,0,"2",1,0,0,1,"10816.299999982119",1,0,0,"1",2,"Nonw","3",NA,NA,"US",1,2,1,1,"wrong","wrong","It's wrong and I can provide a valid reason.","wrong","wrong","wrong","wrong","wrong","wrong",FALSE,FALSE,FALSE,FALSE,FALSE,FALSE,FALSE,FALSE,0,FALSE,0,"unstated","reason","reason","reason","reason","unstated","reason","reason","reason",TRUE
925,"cog_load","7421.099999904633","""","survey-text",52,411449,"0.0-6.0","5c50dd0e7a164500015028c9","618b9cbf713205f8e1c56efc","618c5095408b222f79f165c1","tl2f9pyjne2z7qn","79",1,1967.19999992847,4,18992.3999999762,"2","10276.399999976158",1,0,0,"1",8,30838.5,"Jennifer","cog_load",2,"19596.899999976158",1,0,0,"2","{""Q0"":""no""}","""","""","""","""",6,0,0,1,0,0,1,0,0,1,"1",1,0,0,2,"12677.299999952316",1,0,0,"1",6,"no",NA,NA,NA,"US",1,1,1,1,"wrong","wrong","It's wrong but I can't think of a reason.","wrong","wrong","wrong","wrong","wrong","wrong",FALSE,FALSE,FALSE,FALSE,FALSE,FALSE,FALSE,FALSE,0,FALSE,0,"unstated","no reason","no reason","no reason","no reason","unstated","no reason","no reason","no reason",FALSE
